"Time (s)","Linear Acceleration x (m/s^2)","Linear Acceleration y (m/s^2)","Linear Acceleration z (m/s^2)"
4.388084100E-2,-4.406025410E-1,1.462345123E-1,2.172405720E-1
4.894000800E-2,-4.591803551E-1,1.142473221E-1,3.539817333E-1
5.397532000E-2,-2.165329456E-1,3.118228912E-2,4.461135864E-1
5.906719500E-2,2.461750507E-1,-6.451606750E-3,2.472546101E-1
6.411891400E-2,6.979315281E-1,-4.601478577E-3,-1.027791500E-1
6.917323700E-2,8.706700802E-1,6.182765961E-2,-3.956513405E-1
7.423052900E-2,7.360482216E-1,1.244850159E-1,-4.237856865E-1
7.929443500E-2,4.376034737E-1,1.087942123E-1,-2.654728889E-1
8.434662200E-2,2.089314461E-1,3.099441528E-4,-6.842899323E-2
8.940584100E-2,1.702456474E-1,-8.609485626E-2,-4.432821274E-2
9.446427900E-2,2.278227806E-1,-1.448783875E-1,-7.955861092E-2
9.952276800E-2,2.774567604E-1,-9.924125671E-2,-1.059479713E-1
1.045277160E-1,2.351126671E-1,-8.026027679E-2,-1.531136036E-1
1.096564660E-1,1.369757652E-1,-3.446674347E-2,-1.521599293E-1
1.147162060E-1,-2.468585968E-2,4.654216766E-2,-1.981832981E-1
1.197727160E-1,-4.058408737E-2,2.862358093E-2,-2.256505489E-1
1.248326120E-1,1.086521149E-2,-1.947879791E-2,-2.312526703E-1
1.298662060E-1,4.462528229E-2,-7.819175720E-2,-2.095491886E-1
1.349256850E-1,4.131698608E-2,-1.335411072E-1,-1.962785721E-1
1.399836540E-1,3.228902817E-2,-9.463500977E-2,-2.140748501E-1
1.450663620E-1,-3.479957581E-2,-3.635787964E-2,-1.611404419E-1
1.501257370E-1,-1.097598076E-1,3.385353088E-2,-5.842828751E-2
1.551567790E-1,-1.441636086E-1,2.390670776E-2,1.210236549E-2
1.602161020E-1,-3.799390793E-2,3.329467773E-2,-1.037859917E-2
1.652728200E-1,8.705997467E-2,3.337764740E-2,-4.661369324E-2
1.703311020E-1,1.782059669E-1,5.423831940E-2,-4.559206963E-2
1.753886540E-1,1.791753769E-1,4.438018799E-2,-6.859230995E-2
1.804470390E-1,1.766152382E-1,2.543640137E-2,-2.916455269E-2
1.855047470E-1,1.382002831E-1,-4.172229767E-2,-1.472902298E-2
1.905626640E-1,1.276211739E-1,-6.545162201E-2,-2.416324615E-2
1.956227680E-1,1.184930801E-1,-7.270240784E-2,8.280992508E-3
2.006789660E-1,1.060757637E-1,-9.651756287E-2,-8.972406387E-3
2.057373520E-1,1.229238510E-1,-9.004020691E-2,-6.024932861E-2
2.107966220E-1,9.838628769E-2,-8.197116852E-2,-1.098604202E-1
2.158547990E-1,1.054987907E-1,-9.790611267E-2,-1.297507286E-1
2.209127680E-1,7.088756561E-2,-8.115673065E-2,-1.230792999E-1
2.259738620E-1,1.859188080E-2,-9.765815735E-2,-1.092588902E-1
2.309556330E-1,-7.020854950E-2,-1.183204651E-1,-1.234672070E-1
2.359881850E-1,-1.017570496E-1,-1.289558411E-1,-8.999514580E-2
2.410156330E-1,-3.540897369E-2,-1.368055344E-1,-8.483076096E-2
2.460717790E-1,-3.910112381E-2,-1.021852493E-1,-8.444619179E-2
2.511318310E-1,-1.255745888E-1,-9.491920471E-3,-1.866602898E-2
2.561965700E-1,-1.903672218E-1,1.843643188E-2,1.137719154E-1
2.612472470E-1,-1.027112007E-1,-2.878665924E-2,1.805832386E-1
2.663083410E-1,3.629398346E-2,-2.554416656E-2,7.972025871E-2
2.713866220E-1,1.865363121E-1,-3.165626526E-2,-6.170678139E-2
2.764221430E-1,1.981725693E-1,-5.867385864E-2,-1.402547359E-1
2.814599040E-1,1.302132607E-1,-6.397056580E-2,-1.500861645E-1
2.865369870E-1,5.669021606E-2,-8.787631989E-2,-6.634211540E-2
2.916191220E-1,5.739974976E-2,-1.582489014E-1,-4.546046257E-2
2.966777680E-1,1.077475548E-1,-1.570262909E-1,-6.965565681E-2
3.017330290E-1,1.437149048E-1,-1.537437439E-1,-8.904194832E-2
3.067905810E-1,1.327304840E-1,-1.156091690E-1,-7.532382011E-2
3.118474040E-1,6.148529053E-2,-1.114959717E-1,1.367640495E-2
3.168863100E-1,-3.463745117E-3,-1.148347855E-1,2.403569221E-2
3.219433930E-1,-3.874921799E-2,-7.609748840E-2,-2.876281738E-2
3.270241220E-1,-4.744482040E-2,-1.229095459E-1,-3.086972237E-2
3.320605290E-1,-3.475093842E-2,-1.220808029E-1,2.913236618E-3
3.371193830E-1,-1.990842819E-2,-1.308641434E-1,-1.043319702E-2
3.421755810E-1,4.429197311E-2,-1.184844971E-1,-7.748985291E-2
3.472345910E-1,7.227325439E-2,-1.040458679E-1,-9.165644646E-2
3.522925080E-1,1.379623413E-1,-1.324853897E-1,-7.260608673E-2
3.573495390E-1,1.982622147E-1,-1.300420761E-1,-9.623765945E-2
3.623686540E-1,2.440571785E-1,-9.015941620E-2,-9.372949600E-2
3.673290700E-1,1.644163132E-1,-6.748485565E-2,-8.185195923E-2
3.722879240E-1,9.762287140E-2,-7.818984985E-2,-1.558876038E-2
3.772466740E-1,4.784774780E-2,-1.004829407E-1,3.381252289E-2
3.822050080E-1,2.409887314E-2,-1.081857681E-1,4.778075218E-2
3.871637580E-1,-7.128238678E-3,-7.543087006E-2,-6.510019302E-3
3.921219350E-1,-1.966142654E-2,-6.649208069E-2,-6.699705124E-2
3.970804770E-1,-1.010613441E-1,-6.215667725E-2,-4.397630692E-2
4.020394350E-1,-1.703717709E-1,-7.879066467E-2,-3.768992424E-2
4.069984450E-1,-2.420182228E-1,-7.362651825E-2,8.954524994E-3
4.119566740E-1,-2.782995701E-1,-1.509180069E-1,3.667950630E-2
4.169178200E-1,-2.462587357E-1,-1.608705521E-1,6.439924240E-2
4.218590700E-1,-1.511995792E-1,-1.918506622E-1,2.567124367E-2
4.268574040E-1,-6.221246719E-2,-1.727533340E-1,-1.030945778E-2
4.318162060E-1,1.428794861E-2,-1.634864807E-1,1.283431053E-2
4.367742790E-1,1.613736153E-1,-1.002368927E-1,-2.591037750E-2
4.417342270E-1,2.367191315E-1,-3.344535828E-2,-2.188873291E-2
4.466917790E-1,2.127141953E-1,6.286430359E-2,2.230143547E-2
4.516286020E-1,1.328330040E-1,8.433723450E-2,8.052325249E-2
4.565883410E-1,3.042173386E-2,7.691764832E-2,1.387770176E-1
4.615701120E-1,-6.983757019E-3,5.762386322E-2,1.331927776E-1
4.665055810E-1,-1.087760925E-2,4.561519623E-2,7.591223717E-2
4.714866220E-1,1.617527008E-2,5.426406860E-4,4.065513611E-2
4.764458930E-1,-3.253602982E-2,-7.485485077E-2,4.581189156E-2
4.814057890E-1,-4.026842117E-2,-1.376209259E-1,1.051881313E-1
4.863637060E-1,-1.022653580E-1,-1.760883331E-1,1.308152676E-1
4.913012580E-1,-4.739999771E-2,-1.195831299E-1,8.774900436E-2
4.962838620E-1,2.376747131E-2,-7.817363739E-2,5.741715431E-2
5.012422990E-1,6.847810745E-2,-3.743934631E-2,1.106810570E-2
5.061770910E-1,6.339168549E-2,-1.159191132E-2,-3.221702576E-2
5.111597470E-1,7.063817978E-2,-1.003074646E-2,1.310062408E-2
5.161175600E-1,1.398882866E-1,-8.695411682E-2,-8.099555969E-3
5.210774560E-1,1.094393730E-1,-6.617355347E-2,-3.147792816E-2
5.260366740E-1,8.434391022E-2,-9.545803070E-2,-4.531836510E-2
5.309715700E-1,-9.170055389E-3,-1.078720093E-1,-3.060960770E-2
5.359302680E-1,-5.459165573E-2,-1.248693466E-1,-1.099181175E-2
5.408900600E-1,-6.211853027E-2,-1.487512589E-1,5.410647392E-2
5.458497990E-1,-5.106210709E-2,-1.225948334E-1,1.973867416E-2
5.508072990E-1,-1.194381714E-2,-1.132631302E-1,-4.707026482E-2
5.557824040E-1,-8.940219879E-3,-1.182231903E-1,-1.533172131E-1
5.607503200E-1,-3.917455673E-2,-1.610507965E-1,-9.740090370E-2
5.656841220E-1,-1.144695282E-1,-1.630706787E-1,-3.899812698E-3
5.706427680E-1,-1.325240135E-1,-2.054224014E-1,1.085345745E-1
5.756015700E-1,-1.815831661E-1,-2.213697433E-1,8.802509308E-2
5.805620910E-1,-2.046203613E-1,-2.323837280E-1,1.867532730E-2
5.855206850E-1,-2.088689804E-1,-2.645387650E-1,-8.061099052E-2
5.904784450E-1,-2.087240219E-1,-3.057250977E-1,-9.359443188E-2
5.953904240E-1,-2.160263062E-1,-3.558435440E-1,-6.161999702E-2
6.003963620E-1,-2.187347412E-1,-3.888788223E-1,-5.984067917E-3
6.053556850E-1,-1.910285950E-1,-3.835411072E-1,4.000401497E-2
6.103175600E-1,-2.162103653E-1,-3.521490097E-1,6.266283989E-2
6.152742790E-1,-2.537105083E-1,-2.758569717E-1,2.912688255E-2
6.202330290E-1,-3.011724949E-1,-2.428493500E-1,-7.732868195E-3
6.252149560E-1,-2.730851173E-1,-3.026866913E-1,-4.029262066E-2
6.301516220E-1,-2.483305931E-1,-3.524932861E-1,-3.562808037E-2
6.351093310E-1,-2.574431896E-1,-3.711805344E-1,-6.497299671E-2
6.400908410E-1,-2.406969070E-1,-4.491958618E-1,-1.091761589E-1
6.450499560E-1,-2.480335236E-1,-5.005464554E-1,-1.542224884E-1
6.500096430E-1,-2.412581444E-1,-5.207118988E-1,-1.691861153E-1
6.548977680E-1,-2.274518013E-1,-5.005407333E-1,-1.708180904E-1
6.599262580E-1,-2.067980766E-1,-4.785232544E-1,-1.818176508E-1
6.648865700E-1,-1.361365318E-1,-4.475326538E-1,-2.221883535E-1
6.698438620E-1,-8.451962471E-2,-4.006071091E-1,-2.394237518E-1
6.747802160E-1,-7.055759430E-2,-3.664093018E-1,-2.292065620E-1
6.797546430E-1,-6.787323952E-2,-3.472576141E-1,-1.604499817E-1
6.847215180E-1,-1.001629829E-1,-3.453130722E-1,-5.526685715E-2
6.896799040E-1,-1.648764610E-1,-3.271436691E-1,1.253521442E-2
6.946388620E-1,-2.118253708E-1,-3.380117416E-1,4.804790020E-2
6.995968830E-1,-2.625823021E-1,-3.016242981E-1,7.036578655E-2
7.045158410E-1,-2.885429859E-1,-3.133087158E-1,1.077502966E-1
7.095151120E-1,-2.851588726E-1,-3.158245087E-1,1.301356554E-1
7.144740700E-1,-2.455453873E-1,-3.494434357E-1,1.533839703E-1
7.194334450E-1,-2.271699905E-1,-3.687572479E-1,2.277423143E-1
7.243916220E-1,-2.489104271E-1,-3.904752731E-1,2.318134308E-1
7.293292790E-1,-2.751903534E-1,-4.214305878E-1,1.656768322E-1
7.342890180E-1,-3.037195206E-1,-4.685831070E-1,7.731938362E-2
7.392461020E-1,-3.039913177E-1,-4.959287643E-1,3.764104843E-2
7.442053200E-1,-3.213958740E-1,-5.107221603E-1,-3.926348686E-2
7.491639140E-1,-2.681066990E-1,-5.248632431E-1,-4.854738712E-2
7.541230810E-1,-1.823253632E-1,-5.290441513E-1,-7.846695185E-2
7.590818310E-1,-7.345724106E-2,-5.068778992E-1,-1.051169038E-1
7.640415180E-1,2.292633057E-2,-4.752826691E-1,-1.286566257E-1
7.690012060E-1,9.283685684E-2,-4.795322418E-1,-1.630705595E-1
7.739590700E-1,1.676917076E-1,-4.743843079E-1,-2.316746116E-1
7.789188100E-1,1.738948822E-1,-4.741935730E-1,-1.960639358E-1
7.838962060E-1,1.761255264E-1,-4.907760620E-1,-2.801105976E-1
7.888357370E-1,1.956706047E-1,-5.357255936E-1,-1.534186602E-1
7.937945390E-1,2.108845711E-1,-5.399265289E-1,-1.066944599E-1
7.987546950E-1,2.051522732E-1,-5.179166794E-1,-3.473618627E-2
8.037124560E-1,1.926333904E-1,-4.887514114E-1,-3.989055753E-2
8.086715180E-1,1.876778603E-1,-3.931264877E-1,-7.858976722E-2
8.136305810E-1,1.167788506E-1,-3.170757294E-1,-1.319288909E-1
8.185889660E-1,4.082918167E-3,-2.721900940E-1,-1.120946258E-1
8.235022990E-1,-6.941080093E-2,-2.913675308E-1,-1.345995516E-1
8.285293830E-1,-8.221197128E-2,-3.505382538E-1,-9.486293048E-2
8.334884450E-1,-7.987594604E-2,-3.970918655E-1,-5.059979856E-2
8.384467790E-1,-3.096842766E-2,-4.551801682E-1,-1.198727787E-1
8.434058930E-1,4.328441620E-2,-5.842752457E-1,-2.716399133E-1
8.483659450E-1,9.560871124E-2,-6.499719620E-1,-1.803472042E-1
8.532544870E-1,1.110532284E-1,-6.415786743E-1,-7.138729095E-2
8.582826640E-1,1.115055084E-1,-5.928525925E-1,-4.388573766E-2
8.632425600E-1,1.340906620E-1,-4.798727036E-1,-1.768563092E-1
8.682013100E-1,1.954016685E-1,-3.720121384E-1,-2.279758453E-1
8.731612060E-1,1.901199818E-1,-3.047409058E-1,-2.546247244E-1
8.780492270E-1,1.110200882E-1,-2.752676010E-1,-2.838287354E-1
8.830799040E-1,-2.881550789E-2,-3.119621277E-1,-3.405902982E-1
8.880350600E-1,-2.018446922E-1,-3.973436356E-1,-4.534996748E-1
8.929963100E-1,-2.171394825E-1,-5.382194519E-1,-3.229857087E-1
8.979553720E-1,-1.350739002E-1,-5.462579727E-1,-2.952128649E-2
9.028963620E-1,-5.390167236E-2,-5.555448532E-1,-3.343224525E-3
9.078725600E-1,7.700443268E-2,-5.472030640E-1,-2.819335461E-2
9.128321430E-1,1.073777676E-1,-5.166625977E-1,-6.198132038E-2
9.177882370E-1,-3.166198730E-4,-4.687299728E-1,-4.715657234E-2
9.227480290E-1,-1.027557850E-1,-4.079980850E-1,-2.134001255E-2
9.276852680E-1,-2.118835449E-1,-3.439960480E-1,3.929460049E-2
9.326427680E-1,-2.920360565E-1,-2.551202774E-1,-2.913582325E-2
9.376026120E-1,-2.575678825E-1,-1.463146210E-1,-3.113842010E-2
9.425595910E-1,-1.659090519E-1,-3.681850433E-2,-5.046856403E-2
9.475217790E-1,-4.804468155E-2,7.808971405E-2,-3.462421894E-2
9.524965180E-1,8.441472054E-2,1.815624237E-1,-1.459332705E-1
9.574388100E-1,2.336692810E-1,3.067789078E-1,-1.851012707E-1
9.623954770E-1,3.094687462E-1,4.513473511E-1,-1.873831749E-1
9.673575600E-1,2.978360653E-1,5.723514557E-1,-2.197985649E-1
9.723157890E-1,2.056407928E-1,7.272748947E-1,-2.112374306E-1
9.772730810E-1,7.801270485E-2,8.423376083E-1,-1.405313015E-1
9.822320390E-1,-7.777190208E-2,9.059038162E-1,-1.603362560E-1
9.871899560E-1,-2.285046577E-1,9.444789886E-1,-2.776191235E-1
9.921517790E-1,-3.387544155E-1,1.053526878E0,-2.324328423E-1
9.971077160E-1,-3.899390697E-1,1.142309189E0,-1.565322876E-1
1.002075789E0,-3.657596111E-1,1.215845108E0,-6.876850128E-2
1.007029487E0,-3.022468090E-1,1.192972183E0,-1.223156452E-1
1.011988758E0,-2.924640179E-1,1.167065620E0,-2.092494965E-1
1.016947404E0,-2.910776138E-1,1.168935776E0,-2.895545959E-1
1.022004227E0,-2.236680984E-1,1.129876137E0,-3.685743809E-1
1.027064904E0,-9.245419502E-2,1.139919281E0,-3.047347069E-1
1.032122768E0,-4.479670525E-2,1.034120560E0,-3.633630276E-1
1.037206310E0,1.654145718E-1,9.819221497E-1,-5.751273632E-1
1.042235112E0,3.854146004E-1,8.559017181E-1,-6.954500675E-1
1.047300112E0,4.631950855E-1,8.047037125E-1,-7.658576965E-1
1.052375372E0,5.275471210E-1,7.490110397E-1,-9.663853645E-1
1.057437143E0,4.989938736E-1,7.816686630E-1,-9.660363197E-1
1.062494643E0,4.635605812E-1,8.024644852E-1,-7.937979698E-1
1.067526466E0,5.045194626E-1,8.064336777E-1,-7.368535995E-1
1.072606779E0,5.886561871E-1,8.441724777E-1,-7.003092766E-1
1.077641310E0,5.991652012E-1,8.717966080E-1,-6.830668449E-1
1.082654539E0,5.578742027E-1,9.085702896E-1,-6.798257828E-1
1.087785789E0,5.482859612E-1,9.243946075E-1,-7.270264626E-1
1.092840216E0,5.163066387E-1,9.703073502E-1,-8.255386353E-1
1.097896570E0,4.001383781E-1,1.060912132E0,-8.954935074E-1
1.102956310E0,2.500374317E-1,1.131600380E0,-9.037241936E-1
1.108015164E0,9.680509567E-2,1.211194515E0,-7.788596153E-1
1.113069904E0,8.319783211E-2,1.225610256E0,-7.124094963E-1
1.118131206E0,9.208798409E-2,1.153525829E0,-6.397185326E-1
1.123189643E0,1.142184734E-1,1.068871975E0,-5.466895103E-1
1.128224383E0,1.424732208E-1,9.592857361E-1,-5.769639015E-1
1.133235112E0,1.651988029E-1,8.911910057E-1,-6.373572350E-1
1.138342091E0,2.070474625E-1,8.886909485E-1,-6.049308777E-1
1.143397404E0,1.703670025E-1,8.911027908E-1,-5.406856537E-1
1.148359487E0,6.264734268E-2,8.075838089E-1,-6.118402481E-1
1.153314852E0,1.092290878E-2,6.891951561E-1,-4.662084579E-1
1.158275112E0,-1.235277653E-1,5.889954567E-1,-3.710708618E-1
1.163233185E0,-1.501889229E-1,5.713977814E-1,-3.738713264E-1
1.168193862E0,-1.171765327E-1,4.215121269E-1,-3.597130775E-1
1.173149643E0,-6.265759468E-2,2.901997566E-1,-2.139291763E-1
1.178110112E0,2.785730362E-2,1.992301941E-1,-4.362821579E-2
1.183070216E0,-2.254891396E-2,1.343379021E-1,-5.853271484E-2
1.188033602E0,-2.984786034E-2,9.560394287E-2,-5.500459671E-2
1.192991310E0,-1.583027840E-2,6.868648529E-2,-1.639175415E-2
1.197947664E0,-3.279161453E-2,1.325225830E-2,-3.059816360E-2
1.202906622E0,-3.482341766E-2,-4.917669296E-2,-9.724855423E-2
1.207866674E0,-1.236343384E-2,-1.400332451E-1,-1.159710884E-1
1.212824435E0,-9.436511993E-2,-2.280988693E-1,-1.655511856E-1
1.217784383E0,-1.182310581E-1,-3.466124535E-1,-8.353853226E-2
1.222707716E0,-1.133675575E-1,-3.641242981E-1,5.562543869E-2
1.227701206E0,-1.655588150E-1,-3.401737213E-1,8.789253235E-2
1.232685997E0,-1.913850307E-1,-2.869725227E-1,1.517047882E-1
1.237646154E0,-1.575067043E-1,-1.688041687E-1,2.327380180E-1
1.242600424E0,-1.022377014E-1,-6.222724915E-2,2.618002892E-1
1.247563185E0,1.991677284E-2,-2.209377289E-2,2.271986008E-1
1.252571883E0,1.354532242E-1,1.893043518E-3,1.746821404E-1
1.257629695E0,2.206563950E-1,4.293584824E-2,9.926319122E-2
1.262660372E0,1.961245537E-1,9.325599670E-2,2.622509003E-2
1.267676622E0,1.124844551E-1,9.554290771E-2,-1.584482193E-2
1.272706362E0,5.343198776E-2,1.406946182E-1,-4.603385925E-2
1.277766883E0,2.822566032E-2,1.427884102E-1,-9.534931183E-2
1.282822664E0,5.549407005E-2,1.327843666E-1,-8.300876617E-2
1.287881831E0,2.519893646E-2,1.992053986E-1,8.399200439E-2
1.292939643E0,7.069230080E-2,2.631430626E-1,1.021614075E-1
1.298020841E0,7.708764076E-2,3.243951797E-1,3.380966187E-2
1.303067456E0,1.038606167E-1,3.587374687E-1,6.236124039E-2
1.308113029E0,6.274127960E-2,5.072398186E-1,1.901707649E-1
1.313171154E0,5.902218819E-2,5.734801292E-1,-1.630721092E-1
1.318250372E0,6.456875801E-2,5.904340744E-1,-4.380569458E-1
1.323309070E0,1.081886292E-1,6.132183075E-1,-3.487329483E-1
1.328344539E0,1.654779911E-1,5.871758461E-1,-3.113303185E-1
1.333426049E0,1.333112717E-1,5.076665878E-1,-4.379420280E-1
1.338460268E0,1.302065849E-1,5.200777054E-1,-3.994636536E-1
1.343518341E0,1.130666733E-1,5.577707291E-1,-2.174267769E-1
1.348575997E0,1.176147461E-1,5.086488724E-1,-8.784055710E-2
1.353634227E0,8.200478554E-2,4.684405327E-1,7.545995712E-2
1.358692404E0,1.042442322E-1,4.134702682E-1,1.843738556E-1
1.363751049E0,4.343247414E-2,3.508610725E-1,2.080349922E-1
1.368808549E0,-2.153992653E-2,3.117103577E-1,2.398247719E-1
1.373866362E0,-4.780697823E-2,2.864637375E-1,2.487702370E-1
1.378924487E0,-1.592874527E-2,3.108749390E-1,2.590017319E-1
1.383927299E0,1.152029037E-1,3.106660843E-1,2.395811081E-1
1.388866258E0,1.577289104E-1,2.930302620E-1,2.695655823E-1
1.393825633E0,1.718764305E-1,4.469919205E-1,5.474033356E-1
1.398784070E0,1.074738503E-1,4.613695145E-1,3.107185364E-1
1.403745268E0,6.734204292E-2,3.738722801E-1,-6.993198395E-2
1.408703758E0,-7.664203644E-3,4.091320038E-1,-2.609205246E-2
1.413662768E0,-6.713843346E-2,4.674563408E-1,1.984581947E-1
1.418623758E0,-1.234521866E-1,4.561467171E-1,2.408080101E-1
1.423531258E0,-1.631280184E-1,4.494857788E-1,1.563162804E-1
1.428538966E0,-1.773076057E-1,3.734383583E-1,9.545707703E-2
1.433519018E0,-1.875209808E-1,3.522992134E-1,1.344919205E-1
1.438478654E0,-2.102478743E-1,3.383297920E-1,1.898241043E-1
1.443437247E0,-2.234921455E-1,2.982120514E-1,2.735886574E-1
1.448400008E0,-2.604939938E-1,2.677588463E-1,2.926397324E-1
1.453386258E0,-2.420220375E-1,2.327280045E-1,3.571906090E-1
1.458415685E0,-2.253649235E-1,1.763701439E-1,3.525528908E-1
1.463474435E0,-2.196052074E-1,1.654210091E-1,3.934717178E-1
1.468559070E0,-2.292568684E-1,1.257224083E-1,3.987002373E-1
1.473591414E0,-2.347337008E-1,1.597485542E-1,3.706531525E-1
1.478673081E0,-2.526330948E-1,1.670064926E-1,3.643155098E-1
1.483706779E0,-2.162721157E-1,1.692786217E-1,3.774046898E-1
1.488790216E0,-1.826581955E-1,1.856193542E-1,3.884577751E-1
1.493824227E0,-7.342338562E-2,2.662730217E-1,3.784737587E-1
1.498881466E0,-9.404408932E-2,3.299612999E-1,3.475732803E-1
1.503965789E0,-5.315279961E-2,3.625082970E-1,3.078465462E-1
1.508999695E0,-1.018066406E-1,4.619407654E-1,2.807307243E-1
1.514085060E0,-1.298898458E-1,5.158338547E-1,1.945443153E-1
1.519118810E0,-1.594139338E-1,5.172238350E-1,1.710686684E-1
1.524126102E0,-1.881929636E-1,5.403862000E-1,2.364158630E-1
1.529154227E0,-2.090646029E-1,5.541996956E-1,2.733335495E-1
1.534213341E0,-2.103830576E-1,5.300183296E-1,2.722473145E-1
1.539271466E0,-1.999317408E-1,5.395202637E-1,3.643264771E-1
1.544329279E0,-2.231930494E-1,5.659480095E-1,4.443078041E-1
1.549388133E0,-2.373123169E-1,5.590038300E-1,4.762406349E-1
1.554442404E0,-2.588802576E-1,5.592355728E-1,4.912109375E-1
1.559501466E0,-2.901767492E-1,6.382255554E-1,5.680651665E-1
1.564560841E0,-3.189480305E-1,6.666517258E-1,5.561218262E-1
1.569619487E0,-3.379964828E-1,6.588258743E-1,5.294718742E-1
1.574629852E0,-3.667423725E-1,6.649708748E-1,5.668249130E-1
1.579752768E0,-4.362362623E-1,6.744122505E-1,5.601148605E-1
1.584742924E0,-3.901549578E-1,6.667003632E-1,5.573186874E-1
1.589701831E0,-3.290935755E-1,6.680479050E-1,6.224880219E-1
1.594665737E0,-2.789671421E-1,7.044119835E-1,6.363463402E-1
1.599620268E0,-2.298470736E-1,6.874613762E-1,5.920739174E-1
1.604578289E0,-1.954946518E-1,6.531996727E-1,5.851769447E-1
1.609537872E0,-1.921560764E-1,6.611356735E-1,5.940470695E-1
1.614496831E0,-2.267875671E-1,6.492929459E-1,5.640296936E-1
1.619455529E0,-2.563071251E-1,6.700463295E-1,5.120468140E-1
1.624415112E0,-2.880436182E-1,6.567316055E-1,5.570335388E-1
1.629396414E0,-3.075320721E-1,6.974868774E-1,5.724072456E-1
1.634335164E0,-2.815392017E-1,6.472129822E-1,5.704913139E-1
1.639314227E0,-2.316212654E-1,6.491317749E-1,5.776019096E-1
1.644347664E0,-2.486492395E-1,6.077136993E-1,5.221819878E-1
1.649406258E0,-2.684589624E-1,5.805301666E-1,4.357609749E-1
1.654465320E0,-2.273013592E-1,5.866756439E-1,4.825782776E-1
1.659521935E0,-1.849136353E-1,6.188573837E-1,4.456281662E-1
1.664580372E0,-1.531082392E-1,6.032295227E-1,3.849506378E-1
1.669664799E0,-1.769205332E-1,5.901074409E-1,4.123930931E-1
1.674698602E0,-2.039198875E-1,6.320104599E-1,4.111905098E-1
1.679754591E0,-2.244064808E-1,6.120038033E-1,3.482227325E-1
1.684834539E0,-2.621418238E-1,6.396512985E-1,3.140468597E-1
1.689891674E0,-2.408571243E-1,6.626043320E-1,3.325242996E-1
1.694949956E0,-2.271583080E-1,7.116022110E-1,2.938957214E-1
1.699988081E0,-2.187547684E-1,6.866536140E-1,2.056598663E-1
1.705043602E0,-2.038996220E-1,6.808362007E-1,1.914987564E-1
1.710126466E0,-2.089625597E-1,6.773214340E-1,1.723494530E-1
1.715186362E0,-2.340042591E-1,6.286306381E-1,1.363577843E-1
1.720245529E0,-1.646333933E-1,6.251602173E-1,1.333479881E-1
1.725276154E0,-1.723339558E-1,6.357069016E-1,1.583848000E-1
1.730334227E0,-9.487211704E-2,6.576251984E-1,1.137361526E-1
1.735393029E0,-6.609237194E-2,6.645832062E-1,6.864356995E-2
1.740450372E0,-4.502594471E-2,6.827087402E-1,5.861902237E-2
1.745511206E0,2.096557617E-2,6.573052406E-1,9.055662155E-2
1.750566518E0,5.388677120E-2,6.052551270E-1,7.390642166E-2
1.755627872E0,5.226552486E-2,5.528106689E-1,4.944562912E-2
1.760685216E0,3.335976601E-2,4.808883667E-1,5.754613876E-2
1.765741414E0,4.404544830E-3,3.992581367E-1,3.869104385E-2
1.770703133E0,-5.857729912E-2,3.415060043E-1,2.897214890E-2
1.775664591E0,-1.008943319E-1,2.740802765E-1,4.948043823E-2
1.780622404E0,-7.764899731E-2,2.185239792E-1,7.631683350E-2
1.785581414E0,-9.170937538E-2,2.199978828E-1,1.190528870E-1
1.790540060E0,-6.447339058E-2,2.448778152E-1,1.444058418E-1
1.795499591E0,-6.047737598E-2,2.312936783E-1,1.169466972E-1
1.800458393E0,-7.007694244E-2,2.744936943E-1,7.740306854E-2
1.805417560E0,-7.661807537E-2,2.792549133E-1,2.850866318E-2
1.810376466E0,-7.318508625E-2,2.909083366E-1,-3.932952881E-2
1.815333966E0,-5.722320080E-2,2.880663872E-1,-9.499216080E-2
1.820293393E0,1.158630848E-2,2.969923019E-1,-4.595470428E-2
1.825252560E0,7.819855213E-2,2.916183472E-1,-4.009532928E-2
1.830209956E0,9.781134129E-2,2.719540596E-1,-6.528615952E-2
1.835193497E0,1.613817215E-1,2.476186752E-1,2.836322784E-2
1.840128549E0,1.948963404E-1,2.380695343E-1,9.560108185E-2
1.845087612E0,1.966025829E-1,2.404232025E-1,7.444572449E-2
1.850046414E0,1.877609491E-1,1.928625107E-1,3.441190720E-2
1.855006414E0,1.397455931E-1,1.860618591E-1,6.113243103E-2
1.859985997E0,1.171007156E-1,1.697549820E-1,4.236650467E-2
1.864923862E0,1.812932491E-1,1.274480820E-1,-6.420087814E-2
1.869882247E0,2.159448862E-1,1.350421906E-1,-6.346893311E-2
1.874840112E0,2.329928279E-1,1.211338043E-1,-1.066303253E-2
1.879800268E0,2.493025064E-1,9.536075592E-2,-2.736425400E-2
1.884758862E0,2.501788139E-1,4.845905304E-2,-2.505731583E-2
1.889741414E0,1.688952446E-1,4.474639893E-3,8.168268204E-2
1.894677352E0,1.976179481E-1,-5.735492706E-2,1.811962128E-1
1.899635685E0,1.928311586E-1,-5.852222443E-2,2.355713844E-1
1.904593497E0,2.686363459E-1,-9.194660187E-2,1.979670525E-1
1.909575685E0,2.699065208E-1,-8.358383179E-2,2.166318893E-1
1.914513237E0,2.202085853E-1,-5.001449585E-2,1.990275383E-1
1.919471831E0,2.219985723E-1,-4.378318787E-2,6.936979294E-2
1.924430633E0,2.316114306E-1,-2.898502350E-2,-1.699066162E-2
1.929389799E0,2.181549668E-1,-8.506774902E-4,-1.985836029E-2
1.934347195E0,2.171893120E-1,5.946540833E-2,-8.478069305E-2
1.939305789E0,2.309439778E-1,5.667591095E-2,-2.017874718E-1
1.944264747E0,2.309828103E-1,6.242752075E-2,-2.067289352E-1
1.949225529E0,2.841206193E-1,1.194515228E-1,-1.573634148E-1
1.954198706E0,3.214583993E-1,8.462238312E-2,-2.254085541E-1
1.959143237E0,3.933720291E-1,7.494735718E-2,-2.319235802E-1
1.964122039E0,4.432799816E-1,9.242916107E-2,-2.013492584E-1
1.969061466E0,4.473568201E-1,8.673954010E-2,-2.625942230E-1
1.974027039E0,4.370679259E-1,1.052522659E-1,-3.726086617E-1
1.978980685E0,4.288786650E-1,5.728721619E-2,-4.032053947E-1
1.983958602E0,4.441507459E-1,1.209259033E-2,-3.861494064E-1
1.988898237E0,4.159885347E-1,-3.059959412E-2,-4.266910553E-1
1.993857352E0,4.067348540E-1,-6.394958496E-2,-4.558782578E-1
1.998817977E0,4.160540104E-1,-9.523487091E-2,-3.860902786E-1
2.003774487E0,4.366007447E-1,-8.655452728E-2,-3.013515472E-1
2.008734174E0,4.656307399E-1,-9.542655945E-2,-3.944182396E-1
2.013691883E0,4.218508005E-1,-9.806251526E-2,-4.479293823E-1
2.018649383E0,3.795510530E-1,-1.016788483E-1,-3.957972527E-1
2.023564487E0,3.765462339E-1,-9.435176849E-2,-4.335179329E-1
2.028567924E0,3.798223436E-1,-1.049671173E-1,-5.489201546E-1
2.033528289E0,4.417125285E-1,-1.024017334E-1,-5.108933449E-1
2.038511310E0,4.482124448E-1,-5.347824097E-2,-4.868245125E-1
2.043469956E0,4.547190666E-1,-5.122280121E-2,-6.404886246E-1
2.048404487E0,4.234801233E-1,-1.119985580E-1,-7.284564972E-1
2.053353341E0,3.808248639E-1,-1.140623093E-1,-6.632447243E-1
2.058345372E0,3.317679167E-1,-1.196575165E-1,-7.097201347E-1
2.063303549E0,3.666428328E-1,-2.187547684E-1,-7.384314537E-1
2.068262143E0,3.401741087E-1,-3.061676025E-1,-7.021470070E-1
2.073166049E0,3.716070056E-1,-3.364210129E-1,-6.363062859E-1
2.078159331E0,3.395023346E-1,-3.720731735E-1,-6.960654259E-1
2.083141310E0,2.986958027E-1,-3.888616562E-1,-6.683464050E-1
2.088097143E0,2.422963381E-1,-3.606681824E-1,-6.770896912E-1
2.093059591E0,2.466559410E-1,-3.211936951E-1,-6.912856102E-1
2.097995320E0,1.970939338E-1,-2.466106415E-1,-7.319855690E-1
2.102977768E0,1.557092667E-1,-2.086677551E-1,-8.587293625E-1
2.107932299E0,1.434879452E-1,-2.946853638E-1,-8.805232048E-1
2.112891206E0,2.010730654E-1,-3.374156952E-1,-8.599343300E-1
2.117853237E0,1.505696774E-1,-5.820531845E-1,-1.218056679E0
2.122790164E0,9.062775224E-2,-7.681708336E-1,-1.467488289E0
2.127749227E0,3.873044252E-1,-8.128662109E-1,-1.330879688E0
2.132705372E0,7.684066296E-1,-7.142744064E-1,-1.104718685E0
2.137664747E0,9.451300502E-1,-6.019201279E-1,-1.081986904E0
2.142623237E0,9.185636640E-1,-5.161886215E-1,-8.405957222E-1
2.147583445E0,7.946308851E-1,-4.325294495E-1,-4.050745964E-1
2.152541154E0,6.636910439E-1,-3.862638474E-1,-2.845997810E-1
2.157500164E0,5.251125693E-1,-4.912986755E-1,-4.294643402E-1
2.162459331E0,3.996932507E-1,-5.136604309E-1,-3.268523216E-1
2.167419383E0,3.084553480E-1,-5.394306183E-1,-2.920136452E-1
2.172378289E0,1.629247069E-1,-5.855216980E-1,-5.290832520E-1
2.177337560E0,1.322122514E-1,-6.233634949E-1,-5.705642700E-1
2.182298706E0,1.062872037E-1,-6.434040070E-1,-3.537230492E-1
2.187253914E0,1.636524349E-1,-6.433610916E-1,-3.530435562E-1
2.192212924E0,2.350014001E-1,-6.545543671E-1,-4.627637863E-1
2.197174435E0,2.465494573E-1,-6.626472473E-1,-3.875503540E-1
2.202130841E0,1.776454449E-1,-5.938549042E-1,-1.594095230E-1
2.207090633E0,1.477878690E-1,-5.725212097E-1,-2.857642174E-1
2.212048966E0,1.381173581E-1,-6.294479370E-1,-4.034204483E-1
2.217007560E0,1.608085334E-1,-6.070899963E-1,-2.010822296E-1
2.221922508E0,1.804213971E-1,-5.749683380E-1,-2.631134987E-1
2.226929227E0,2.283352911E-1,-6.121644974E-1,-5.007228851E-1
2.231910372E0,2.671789825E-1,-6.253843307E-1,-4.089202881E-1
2.236871049E0,3.117230833E-1,-6.243104935E-1,-3.940482140E-1
2.241824435E0,2.767404914E-1,-6.472587585E-1,-4.962363243E-1
2.246786102E0,2.558783293E-1,-6.277637482E-1,-4.941353798E-1
2.251744174E0,2.276902050E-1,-5.780372620E-1,-3.814735413E-1
2.256683445E0,1.371563375E-1,-4.959163666E-1,-2.920522690E-1
2.261665008E0,-2.760253847E-2,-4.863767624E-1,-3.685894012E-1
2.266598602E0,-1.528627872E-1,-5.082731247E-1,-2.745766640E-1
2.271560060E0,-2.511271834E-1,-5.043487549E-1,-1.419949532E-1
2.276518862E0,-2.942433953E-1,-5.578079224E-1,-1.252884865E-1
2.281497977E0,-2.753892541E-1,-5.281496048E-1,-6.454610825E-2
2.286462977E0,-2.593328953E-1,-4.704303741E-1,-8.312225342E-2
2.291393289E0,-2.462409735E-1,-4.204835892E-1,-1.542153358E-1
2.296351310E0,-2.026930153E-1,-3.190202713E-1,-2.064294815E-1
2.301313081E0,-5.062517524E-2,-2.113771439E-1,-2.324085236E-1
2.306295477E0,8.120037615E-2,-1.522903442E-1,-3.821182251E-1
2.311230737E0,1.764807701E-1,-1.292781830E-1,-3.288745880E-1
2.316187352E0,2.049533278E-1,-5.885219574E-2,-2.688779831E-1
2.321150268E0,1.837636083E-1,-1.077146530E-1,-4.018521309E-1
2.326106414E0,9.177890420E-2,-4.208469391E-2,-2.724657059E-1
2.331067091E0,-6.621244550E-2,6.545066833E-3,-3.386282921E-1
2.336024018E0,-1.644627452E-1,2.874565125E-2,-4.611148834E-1
2.340982924E0,-2.085905671E-1,2.231216431E-2,-5.825409889E-1
2.345960164E0,-2.086616158E-1,-6.463050842E-2,-4.913568497E-1
2.350901258E0,-1.697750390E-1,-5.769252777E-2,-2.288188934E-1
2.355860945E0,-1.800657809E-1,-1.026782990E-1,-3.831853867E-1
2.360820008E0,-1.749234796E-1,-2.300691605E-1,-3.575434685E-1
2.365782456E0,-2.185336351E-1,-2.014131546E-1,-1.255607605E-2
2.370737820E0,-2.772018611E-1,-1.699333191E-1,-6.544446945E-2
2.375696049E0,-3.008743525E-1,-2.167243958E-1,-2.975935936E-1
2.380654904E0,-2.990328968E-1,-2.057151794E-1,-1.422710419E-1
2.385615008E0,-2.740151584E-1,-1.918392181E-1,-8.195352554E-2
2.390574070E0,-2.498160899E-1,-2.204589844E-1,-3.039007187E-1
2.395533081E0,-2.251649499E-1,-2.787828445E-1,-3.737840652E-1
2.400491674E0,-2.028503418E-1,-2.744340897E-1,-1.559424400E-1
2.405451987E0,-2.425247431E-1,-2.266311646E-1,-1.836690903E-1
2.410410268E0,-3.007667363E-1,-3.149681091E-1,-4.070153236E-1
2.415321674E0,-2.864771783E-1,-3.431396484E-1,-2.113323212E-1
2.420327560E0,-3.025986254E-1,-3.542041779E-1,-2.736616135E-2
2.425294904E0,-3.202635944E-1,-3.913612366E-1,-2.902550697E-1
2.430266987E0,-3.419337571E-1,-4.786376953E-1,-2.803711891E-1
2.435224487E0,-3.605452478E-1,-4.437427521E-1,-1.149520874E-1
2.440187872E0,-3.906044066E-1,-4.782123566E-1,-2.270889282E-1
2.445143602E0,-3.747945428E-1,-4.960565567E-1,-3.322582245E-1
2.450080008E0,-3.154890537E-1,-4.972829819E-1,-2.154054642E-1
2.455061831E0,-2.648757398E-1,-5.081624985E-1,-1.397311687E-1
2.460023706E0,-2.442845702E-1,-4.857301712E-1,-1.793599129E-1
2.465062560E0,-1.476960778E-1,-4.899597168E-1,-1.147189140E-1
2.470126258E0,-1.721239686E-1,-4.273595810E-1,-9.880304337E-3
2.475182404E0,-2.225329578E-1,-4.392204285E-1,-1.735346317E-1
2.480240112E0,-2.874497175E-1,-3.963918686E-1,-1.655235291E-1
2.485297872E0,-3.477996886E-1,-3.825969696E-1,-1.749291420E-1
2.490357977E0,-3.465724885E-1,-4.648389816E-1,-3.215453625E-1
2.495414435E0,-2.883722484E-1,-4.828510284E-1,-2.921478748E-1
2.500487664E0,-2.711022794E-1,-4.749364853E-1,-2.781395912E-1
2.505531831E0,-1.942240298E-1,-5.057039261E-1,-4.181945324E-1
2.510590581E0,-8.849444985E-2,-5.153789520E-1,-3.513607979E-1
2.515648029E0,-4.231825471E-2,-4.631414413E-1,-2.256274223E-1
2.520707612E0,5.686724186E-2,-4.639577866E-1,-4.142494202E-1
2.525739383E0,8.240182698E-2,-4.723215103E-1,-4.411363602E-1
2.530798654E0,7.746466994E-2,-4.187412262E-1,-2.631812096E-1
2.535857768E0,4.198515415E-2,-4.634408951E-1,-4.040997028E-1
2.540915997E0,-5.064138770E-2,-5.203647614E-1,-5.888519287E-1
2.545972612E0,-1.071940958E-1,-5.295581818E-1,-4.154667854E-1
2.551030685E0,-1.423374414E-1,-5.171947479E-1,-3.237683773E-1
2.556089331E0,-1.322793663E-1,-5.814657211E-1,-5.816695690E-1
2.561146258E0,-1.081165075E-1,-6.553268433E-1,-6.198565960E-1
2.566163081E0,-1.705551147E-2,-6.379461288E-1,-3.730823994E-1
2.571268237E0,2.414712310E-2,-6.515865326E-1,-5.354614258E-1
2.576326466E0,7.719060779E-2,-7.106313705E-1,-7.213578224E-1
2.581378862E0,1.495907307E-1,-6.809930801E-1,-5.204293728E-1
2.586436414E0,1.701785922E-1,-6.415624619E-1,-3.912432194E-1
2.591410789E0,1.796718389E-1,-6.280956268E-1,-6.609828472E-1
2.596368445E0,1.899823844E-1,-6.523742676E-1,-6.357481480E-1
2.601327352E0,2.083712071E-1,-6.306543350E-1,-3.361032009E-1
2.606287299E0,1.773990691E-1,-6.109275818E-1,-5.077297688E-1
2.611251831E0,1.685035229E-1,-6.836328506E-1,-7.128362656E-1
2.616206414E0,1.505199671E-1,-6.697483063E-1,-4.662587643E-1
2.621166831E0,1.235680580E-1,-6.268291473E-1,-3.340296745E-1
2.626122143E0,1.135558486E-1,-6.597814560E-1,-5.578780174E-1
2.631106831E0,1.439825594E-1,-6.968622208E-1,-4.513528347E-1
2.636041362E0,1.264853776E-1,-6.546468735E-1,-1.540548801E-1
2.641029539E0,1.041512191E-1,-6.764659882E-1,-2.759666443E-1
2.645959279E0,1.527503729E-1,-7.499923706E-1,-3.389184475E-1
2.650920841E0,1.625468135E-1,-7.489013672E-1,-1.248006821E-1
2.655901206E0,2.073785067E-1,-7.687950134E-1,-1.440014839E-1
2.660860320E0,2.346263230E-1,-8.476333618E-1,-2.192912102E-1
2.665797664E0,2.826497257E-1,-8.495950699E-1,-1.127917767E-1
2.670778966E0,2.658969164E-1,-8.085556030E-1,-9.430408478E-2
2.675737404E0,2.891687155E-1,-7.938241959E-1,-1.823332310E-1
2.680692924E0,2.834168971E-1,-8.028936386E-1,-1.768238544E-1
2.685671935E0,2.892276347E-1,-7.429513931E-1,-1.354634762E-1
2.690613549E0,2.329368293E-1,-7.285366058E-1,-9.180998802E-2
2.695572872E0,2.411573529E-1,-7.046318054E-1,8.774757385E-3
2.700507872E0,3.135016263E-1,-6.428003311E-1,7.802391052E-2
2.705491466E0,3.285390139E-1,-6.242094040E-1,1.844787598E-2
2.710428602E0,3.579862714E-1,-6.128444672E-1,2.180814743E-3
2.715408966E0,3.542191982E-1,-5.492706299E-1,2.179408073E-2
2.720366831E0,2.788382769E-1,-5.147647858E-1,-7.279515266E-2
2.725326779E0,1.819975972E-1,-5.329084396E-1,-1.882202625E-1
2.730285112E0,1.419448853E-1,-5.177268982E-1,-5.340886116E-2
2.735219643E0,1.130713820E-1,-4.907798767E-1,9.297132492E-3
2.740181466E0,1.092900038E-1,-5.330228806E-1,-1.090562344E-1
2.745138549E0,1.401568353E-1,-5.298748016E-1,3.858804703E-3
2.750099227E0,1.390382648E-1,-5.052595139E-1,2.350592613E-1
2.755057456E0,6.810927391E-2,-4.379844666E-1,1.325075626E-1
2.760016206E0,-4.621803761E-2,-4.354534149E-1,-5.940079689E-2
2.764975216E0,-1.655698419E-1,-3.996009827E-1,1.449327469E-1
2.769934435E0,-2.539981008E-1,-3.566408157E-1,2.417228222E-1
2.774893602E0,-2.687488198E-1,-3.923330307E-1,-6.087350845E-2
2.779852404E0,-2.030863166E-1,-4.514141083E-1,-9.955024719E-2
2.784811049E0,-2.000181675E-1,-3.458213806E-1,1.124954224E-1
2.789772039E0,-1.473009586E-1,-3.167400360E-1,-6.082487106E-2
2.794728758E0,-5.919587612E-2,-2.924289703E-1,-2.463626862E-1
2.799687977E0,4.079842567E-2,-2.156553268E-1,2.657818794E-2
2.804647560E0,6.970167160E-2,-1.080904007E-1,4.464554787E-2
2.809605789E0,2.048552036E-3,-1.340799332E-1,-2.501850128E-1
2.814564799E0,-1.181340218E-2,-1.168241501E-1,-1.834244728E-1
2.819523862E0,-6.517094374E-2,-9.452819824E-2,-6.628537178E-2
2.824482352E0,-9.172004461E-2,-1.220006943E-1,-3.102779388E-1
2.829466518E0,-6.101429462E-2,-2.037153244E-1,-3.904502392E-1
2.834398966E0,-1.178044081E-2,-1.610078812E-1,-1.842446327E-1
2.839360581E0,1.077425480E-2,-1.990871429E-1,-1.783771515E-1
2.844320685E0,4.950088263E-2,-2.390079498E-1,-1.671984196E-1
2.849303758E0,4.982680082E-2,-2.213468552E-1,-3.192687035E-2
2.854236049E0,5.240309238E-2,-2.083234787E-1,4.356265068E-2
2.859197508E0,6.915616989E-2,-2.165069580E-1,5.161046982E-3
2.864180112E0,9.261596203E-2,-2.149648666E-1,-1.585817337E-2
2.869113237E0,1.155291200E-1,-1.611118317E-1,-5.780053139E-2
2.874074591E0,9.960734844E-2,-1.645746231E-1,-1.370146275E-1
2.879053810E0,1.138781905E-1,-1.608400345E-1,-1.346392632E-1
2.883993029E0,1.248304546E-1,-1.714286804E-1,-1.560654640E-1
2.888973862E0,1.039224863E-1,-2.365732193E-1,-1.868190765E-1
2.893908029E0,7.049900293E-2,-2.229042053E-1,-7.737350464E-2
2.898867039E0,1.723659039E-2,-1.879053116E-1,-4.117488861E-3
2.903850893E0,-1.296299696E-2,-1.295194626E-1,-6.683826447E-2
2.908785060E0,-4.892832041E-2,-8.371257782E-2,-2.976107597E-2
2.913743862E0,-4.787933826E-2,1.155471802E-2,9.257864952E-2
2.918724956E0,-4.326289892E-2,2.288341522E-2,9.280419350E-2
2.923661310E0,-1.364588737E-3,4.100894928E-2,4.734635353E-2
2.928619747E0,4.202270508E-2,3.038120270E-2,2.132775784E-1
2.933579435E0,-2.935349941E-3,4.825878143E-2,2.921149731E-1
2.938537195E0,-7.614892721E-2,8.464527130E-2,1.414654255E-1
2.943497977E0,-1.153407693E-1,5.616188049E-2,5.726099014E-2
2.948456831E0,-1.491734982E-1,7.975292206E-2,1.792063713E-1
2.953415008E0,-1.586677432E-1,7.653999329E-2,4.712486267E-2
2.958374852E0,-1.868236959E-1,4.172897339E-2,-1.642107964E-1
2.963336310E0,-1.881503165E-1,5.163955688E-2,1.849651337E-2
2.968294018E0,-2.292276919E-1,5.613231659E-2,1.624732018E-1
2.973251518E0,-2.549665868E-1,7.171821594E-2,1.597762108E-2
2.978211779E0,-2.177701592E-1,5.630493164E-3,1.566863060E-2
2.983170372E0,-2.104753852E-1,3.919887543E-2,2.462971210E-1
2.988131310E0,-2.019409239E-1,2.913379669E-2,1.432385445E-1
2.993088810E0,-1.897055209E-1,-5.402565002E-3,-4.909014702E-2
2.998045424E0,-1.786469817E-1,3.795814514E-2,3.350615501E-2
3.003005112E0,-1.308087409E-1,9.703159332E-2,1.066868305E-1
3.007968133E0,-8.668342233E-2,1.383771896E-1,-5.387783051E-3
3.012922247E0,-5.784898996E-3,1.194076538E-1,-5.192184448E-2
3.017884695E0,3.062564135E-2,1.571331024E-1,8.095598221E-2
3.022807143E0,3.603756428E-3,1.990404129E-1,2.899885178E-3
3.027803133E0,-3.924539685E-2,2.115879059E-1,-2.019107342E-1
3.032761154E0,-9.603193402E-2,1.976728439E-1,-1.636192799E-1
3.037743497E0,-7.182899117E-2,1.932554245E-1,-6.672453880E-2
3.042706466E0,-6.496587396E-2,1.248369217E-1,-1.272332668E-1
3.047637664E0,-6.127223372E-2,9.507179260E-2,-1.300363541E-1
3.052624018E0,-1.298991740E-1,7.520484924E-2,-1.808643341E-3
3.057554122E0,-2.017729282E-1,7.963085175E-2,-2.782535553E-2
3.062540477E0,-2.129002810E-1,7.718944550E-2,-7.170534134E-2
3.067472195E0,-1.850900948E-1,8.713626862E-2,-5.198311806E-2
3.072434070E0,-1.778935492E-1,8.557796478E-2,-1.443696022E-2
3.077392456E0,-1.077147722E-1,7.510185242E-2,1.497435570E-2
3.082350477E0,-9.101510048E-2,8.193016052E-2,8.147788048E-2
3.087312404E0,-4.866695404E-2,6.787490845E-2,-1.248240471E-2
3.092276622E0,2.586543560E-4,4.736709595E-2,2.647542953E-2
3.097244747E0,3.715205193E-2,7.749557495E-2,1.498816013E-1
3.102209539E0,5.755996704E-2,3.194236755E-2,9.328699112E-2
3.107166935E0,7.587778568E-2,-8.400249481E-2,5.975055695E-2
3.112131518E0,9.930291772E-2,-1.082248688E-1,2.914955616E-1
3.117087508E0,1.158315837E-1,-1.245746613E-1,3.590106964E-1
3.122021310E0,8.263620734E-2,-2.021532059E-1,2.441575527E-1
3.127002977E0,3.092780709E-2,-2.169694901E-1,3.925042152E-1
3.131938914E0,1.313227415E-2,-1.979579926E-1,5.409281254E-1
3.136897508E0,9.926199913E-3,-2.096204758E-1,4.374363422E-1
3.141855945E0,1.877564192E-2,-1.877002716E-1,3.687386513E-1
3.146837508E0,1.350906491E-2,-1.609678268E-1,4.817314148E-1
3.151778654E0,-2.506652474E-2,-1.247358322E-1,4.353749752E-1
3.156736779E0,-7.781720161E-2,-8.634090424E-2,2.876038551E-1
3.161699070E0,-8.533740044E-2,-7.428741455E-2,3.241779804E-1
3.166653706E0,-3.354400396E-2,-2.175235748E-2,4.607949257E-1
3.171613549E0,5.383911729E-2,6.773948669E-3,4.115250111E-1
3.176572352E0,1.148499250E-1,-3.371334076E-2,2.915866375E-1
3.181530216E0,9.048786759E-2,3.072738647E-2,3.272407055E-1
3.186490789E0,7.853493094E-2,6.396102905E-2,3.274908066E-1
3.191449695E0,1.193001568E-1,1.017704010E-1,1.855266094E-1
3.196408602E0,1.102718115E-1,7.042789459E-2,1.135673523E-1
3.201366258E0,1.041356027E-1,7.265663147E-2,2.393915653E-1
3.206332768E0,1.998952031E-2,7.733821869E-2,1.839594841E-1
3.211281518E0,-1.547127962E-3,8.428668976E-2,6.939840317E-2
3.216243185E0,1.045390964E-2,7.455062866E-2,1.978993416E-1
3.221200372E0,5.814522505E-3,1.005582809E-1,2.708411217E-1
3.226183393E0,5.586215854E-2,9.312438965E-2,2.078664303E-1
3.231137768E0,5.795440078E-2,8.568668365E-2,2.306861877E-1
3.236197247E0,-4.673659801E-3,1.496057510E-1,2.701838017E-1
3.241249539E0,-3.652828932E-2,1.915664673E-1,2.095367908E-1
3.246284852E0,-2.601864934E-2,2.164592743E-1,1.515414715E-1
3.251363862E0,2.185261250E-2,2.102260590E-1,1.152908802E-1
3.256398706E0,7.127311826E-2,2.324085236E-1,8.614301682E-2
3.261479591E0,8.189320564E-2,2.353668213E-1,8.087992668E-2
3.266539643E0,4.464039207E-2,2.500658035E-1,-7.712602615E-3
3.271571831E0,2.378627658E-2,2.621269226E-1,-2.469229698E-2
3.276632664E0,-1.183134317E-2,3.073148727E-1,2.734827995E-2
3.281713654E0,-1.921144128E-2,3.378648758E-1,-5.401182175E-2
3.286769591E0,5.607932806E-2,2.944307327E-1,-1.445147991E-1
3.291832716E0,1.424590498E-1,2.585296631E-1,1.752185822E-2
3.296824174E0,2.307697535E-1,2.705478668E-1,9.068346024E-2
3.301944279E0,2.784597874E-1,2.398481369E-1,-5.019116402E-2
3.306979904E0,3.051401973E-1,2.117948532E-1,-2.850484848E-2
3.312064591E0,2.466719747E-1,2.126617432E-1,1.026737690E-1
3.317098862E0,2.150965929E-1,2.040710449E-1,-9.328842163E-3
3.322156570E0,1.911692917E-1,1.646928787E-1,-9.906482697E-2
3.327214956E0,2.699808180E-1,2.040491104E-1,6.845188141E-2
3.332271362E0,3.249644935E-1,1.957244873E-1,1.161503792E-1
3.337330477E0,3.304083943E-1,1.471023560E-1,6.837725639E-2
3.342386674E0,3.341870010E-1,1.344518661E-1,9.914588928E-2
3.347448133E0,3.219893873E-1,1.600046158E-1,2.509658337E-1
3.352505216E0,2.817488611E-1,1.473617554E-1,1.925635338E-1
3.357563185E0,2.444665134E-1,1.393823624E-1,8.187079430E-2
3.362533237E0,2.456149608E-1,1.621456146E-1,1.567637920E-1
3.367492664E0,2.610787749E-1,2.036485672E-1,2.735831738E-1
3.372450060E0,2.454535067E-1,1.828823090E-1,2.084732056E-1
3.377408966E0,1.916242987E-1,1.857519150E-1,1.764247417E-1
3.382369487E0,1.781339645E-1,2.453441620E-1,3.102579117E-1
3.387327195E0,1.523108780E-1,2.520008087E-1,3.190088272E-1
3.392285997E0,1.403641254E-1,2.867574692E-1,2.081465721E-1
3.397256935E0,1.231600344E-1,2.947683334E-1,2.350490093E-1
3.402204018E0,9.625405073E-2,3.522577286E-1,3.368999958E-1
3.407162924E0,1.096990108E-1,3.804483414E-1,2.922294140E-1
3.412121987E0,1.157663167E-1,3.652696609E-1,2.421336174E-1
3.417081049E0,1.314634979E-1,3.475122452E-1,3.435058594E-1
3.421994227E0,2.044304460E-1,3.177728653E-1,4.124484062E-1
3.427022143E0,1.990571320E-1,2.784605026E-1,3.422086239E-1
3.431989122E0,1.801507473E-1,2.771625519E-1,3.263084888E-1
3.436940112E0,1.999019235E-1,2.946329117E-1,3.359777927E-1
3.441898654E0,1.654223204E-1,2.618474960E-1,3.400919437E-1
3.446859643E0,1.531470716E-1,2.599573135E-1,2.651286125E-1
3.451816102E0,2.009444386E-1,2.910852432E-1,2.898111343E-1
3.456754070E0,2.133154571E-1,2.767190933E-1,2.877717018E-1
3.461735633E0,2.547689378E-1,3.098621368E-1,2.830467224E-1
3.466704122E0,2.538057566E-1,3.497657776E-1,2.044594288E-1
3.471652404E0,2.129106522E-1,3.560142517E-1,1.642243862E-1
3.476611102E0,2.295206189E-1,3.812084198E-1,1.907758713E-1
3.481570320E0,2.555020154E-1,4.014959335E-1,1.507368088E-1
3.486528549E0,2.549229562E-1,4.025764465E-1,5.629682541E-2
3.491489435E0,2.231354564E-1,3.823146820E-1,7.669425011E-2
3.496448862E0,1.958969086E-1,4.027547836E-1,1.686353683E-1
3.501408237E0,1.514472067E-1,3.495492935E-1,7.975792885E-2
3.506374279E0,1.683817208E-1,3.253498077E-1,5.358695984E-2
3.511327299E0,1.822081208E-1,2.636070251E-1,1.897783279E-1
3.516286570E0,1.906708032E-1,2.050437927E-1,2.212145329E-1
3.521260008E0,1.556948423E-1,1.946611404E-1,1.295526028E-1
3.526201779E0,1.466235369E-1,1.656312943E-1,2.269740105E-1
3.531141206E0,1.253154278E-1,1.348562241E-1,3.223259449E-1
3.536096935E0,1.275532395E-1,1.046752930E-1,2.587881088E-1
3.541056935E0,1.389459670E-1,7.023620605E-2,2.083513737E-1
3.546016570E0,1.477528811E-1,7.200145721E-2,2.897820473E-1
3.550974747E0,1.300863475E-1,5.275535583E-2,2.718851566E-1
3.555933497E0,1.337197274E-1,2.913665771E-2,1.241843700E-1
3.560892716E0,1.157427505E-1,2.487468719E-2,9.453153610E-2
3.565851883E0,1.357483715E-1,5.178642273E-2,2.036111355E-1
3.570810529E0,1.722051203E-1,5.023288727E-2,1.557843685E-1
3.575770945E0,1.894411445E-1,3.697204590E-2,1.087703705E-1
3.580727872E0,2.399636656E-1,-4.475593567E-3,1.766269207E-1
3.585687664E0,2.477096915E-1,-3.584575653E-2,2.445487976E-1
3.590647924E0,2.818734050E-1,-8.574390411E-2,1.818673611E-1
3.595604643E0,2.639174461E-1,-1.304121017E-1,1.103589535E-1
3.600563549E0,2.725726664E-1,-1.199474335E-1,1.846764088E-1
3.605526154E0,2.838843167E-1,-1.188964844E-1,1.875882149E-1
3.610481258E0,2.574238181E-1,-1.011915207E-1,1.074712276E-1
3.615440841E0,2.552453876E-1,-1.097803116E-1,9.200763702E-2
3.620399070E0,2.392209917E-1,-9.691238403E-2,1.740233898E-1
3.625359227E0,2.189508975E-1,-2.012157440E-2,8.893394470E-2
3.630317404E0,2.275833488E-1,-8.206367493E-3,-5.342245102E-3
3.635300685E0,2.055585384E-1,1.296329498E-2,1.470470428E-2
3.640258393E0,1.863148808E-1,6.229019165E-2,6.499934196E-2
3.645195841E0,1.672760844E-1,7.538032532E-2,4.542231560E-2
3.650154695E0,1.294346750E-1,8.339309692E-2,1.115012169E-2
3.655115164E0,1.442836076E-1,6.979751587E-2,8.113241196E-2
3.660093341E0,1.282003522E-1,6.800174713E-2,7.404875755E-2
3.665031935E0,8.379101753E-2,4.701328278E-2,3.793907166E-2
3.669991727E0,5.848617852E-2,6.156158447E-2,-1.041102409E-2
3.674950216E0,3.800176084E-2,7.575893402E-2,4.310536385E-2
3.679908966E0,6.977825612E-2,7.540035248E-2,4.580044746E-2
3.684890841E0,6.561992317E-2,1.056470871E-1,-4.958128929E-2
3.689828341E0,9.015096724E-2,6.888866425E-2,-7.609033585E-2
3.694785789E0,6.723657995E-2,8.688068390E-2,2.300119400E-2
3.699770060E0,9.467184544E-2,9.511756897E-2,-2.506017685E-3
3.704704539E0,1.125077307E-1,8.645534515E-2,-1.352274418E-1
3.709662508E0,7.084792852E-2,5.871963501E-2,-7.021307945E-2
3.714645529E0,9.125243872E-2,8.581733704E-2,2.985906601E-2
3.719580841E0,3.538888693E-2,1.126470566E-1,-6.806802750E-2
3.724539279E0,8.435340971E-2,5.136299133E-2,-9.644889832E-2
3.729498549E0,7.806760073E-2,5.712604523E-2,3.464436531E-2
3.734455997E0,5.736425519E-2,5.106830597E-2,-1.075601578E-2
3.739416987E0,5.527813733E-2,3.081893921E-2,-1.364643574E-1
3.744375581E0,5.997906625E-2,1.556110382E-2,-5.196952820E-2
3.749335164E0,7.600284368E-2,-8.893013000E-3,-2.227830887E-2
3.754291206E0,7.012590766E-2,-1.880359650E-2,-1.041326523E-1
3.759252508E0,6.853224337E-2,-4.993534088E-2,-1.423666477E-1
3.764213289E0,1.022042260E-1,-7.122612000E-2,-6.131839752E-2
3.769167924E0,9.965334088E-2,-4.708576202E-2,-1.613497734E-2
3.774131414E0,1.087801307E-1,-6.341648102E-2,-5.654263496E-2
3.779088758E0,1.035406068E-1,-8.904838562E-2,-5.133724213E-2
3.784063393E0,1.339828223E-1,-9.533309937E-2,7.054352760E-2
3.789006674E0,1.146194562E-1,-9.668636322E-2,1.062846184E-1
3.793982768E0,5.993790925E-2,-1.051187515E-1,4.209256172E-2
3.798924695E0,2.733264863E-2,-1.253299713E-1,3.308200836E-2
3.803883497E0,4.029984772E-2,-8.831214905E-2,1.122076511E-1
3.808841518E0,-1.553520560E-2,-1.133098602E-1,2.928185463E-2
3.813801206E0,7.653132081E-3,-1.524009705E-1,1.481294632E-3
3.818759904E0,1.906949282E-2,-1.152315140E-1,8.537697792E-2
3.823674018E0,4.738974571E-2,-1.590709686E-1,1.282539368E-1
3.828717091E0,4.741378874E-2,-1.550683975E-1,8.763980865E-2
3.833659747E0,3.359317780E-2,-1.487932205E-1,6.614494324E-2
3.838594487E0,5.577169359E-2,-1.164522171E-1,1.208024025E-1
3.843593602E0,-5.226805806E-3,-9.625339508E-2,7.527232170E-2
3.848537195E0,-6.215944886E-3,-5.254936218E-2,2.280211449E-2
3.853473810E0,1.899462938E-2,-2.587795258E-2,1.099419594E-2
3.858452768E0,4.903852940E-2,-4.211616516E-2,8.012080193E-2
3.863412612E0,5.039611459E-2,-5.106163025E-2,7.040905952E-2
3.868373810E0,-1.003256440E-2,-4.094982147E-2,1.403570175E-3
3.873310320E0,1.328423619E-3,-5.462169647E-2,3.754520416E-2
3.878268341E0,2.700813115E-2,-4.435348511E-2,9.497356415E-2
3.883226206E0,2.170276642E-2,-5.782985687E-2,1.444292068E-2
3.888187768E0,-5.039751530E-3,-2.846145630E-2,-6.778717041E-2
3.893121935E0,8.670762181E-3,-2.538490295E-2,-6.690025330E-3
3.898126831E0,4.593549669E-2,-1.271915436E-2,-2.753496170E-3
3.903044070E0,9.470294416E-2,-6.901073456E-2,-1.175565720E-1
3.908045789E0,1.125433445E-1,-1.010627747E-1,-1.007771492E-1
3.913002977E0,1.089282334E-1,-1.185417175E-1,-2.936220169E-2
3.917942091E0,1.244395077E-1,-1.239147186E-1,-8.888578415E-2
3.922900997E0,1.589724869E-1,-1.197719574E-1,-1.859829426E-1
3.927881518E0,1.790627241E-1,-1.298856735E-1,-1.231493950E-1
3.932816362E0,1.824134737E-1,-1.231746674E-1,-6.050944328E-2
3.937775841E0,1.952845901E-1,-1.188488007E-1,-1.312305927E-1
3.942690008E0,2.080157697E-1,-1.549015045E-1,-1.538305283E-1
3.947693445E0,1.874461472E-1,-1.478023529E-1,-2.873325348E-2
3.952652560E0,1.954627484E-1,-1.573114395E-1,-8.729910851E-2
3.957612560E0,1.794933081E-1,-1.976108551E-1,-1.881151199E-1
3.962571466E0,2.014407367E-1,-2.019348145E-1,-1.740553379E-1
3.967549018E0,2.088245749E-1,-1.634111404E-1,-1.409063339E-1
3.972486987E0,2.444672585E-1,-1.086711884E-1,-2.649450302E-1
3.977402247E0,2.509118319E-1,-1.092271805E-1,-4.004318714E-1
3.982405008E0,3.376196623E-1,-2.049274445E-1,-4.450461864E-1
3.987366727E0,4.564637244E-1,-2.739067078E-1,-4.684195518E-1
3.992325789E0,4.169391990E-1,-3.378829956E-1,-6.134941578E-1
3.997285060E0,3.887181282E-1,-4.516220093E-1,-6.801412106E-1
4.002243706E0,4.976826906E-1,-5.813980103E-1,-5.952272415E-1
4.007202612E0,5.195788145E-1,-7.104148865E-1,-5.640788078E-1
4.012161935E0,5.643097162E-1,-8.030567169E-1,-6.170794964E-1
4.017121414E0,5.697941780E-1,-8.834886551E-1,-6.850013733E-1
4.022033081E0,4.910352528E-1,-9.920825958E-1,-6.511399746E-1
4.027061206E0,4.352163076E-1,-1.138202667E0,-7.730054855E-1
4.032020945E0,6.873973012E-1,-1.787092209E0,-1.439286232E0
4.036978237E0,6.179898381E-1,-2.058309555E0,-1.275042057E0
4.041914018E0,7.738754749E-1,-2.218219280E0,-1.369001865E0
4.046897977E0,1.039926171E0,-2.505463600E0,-1.781563520E0
4.051855060E0,1.247600913E0,-2.788412571E0,-1.923693657E0
4.056814904E0,1.448562503E0,-3.024265289E0,-2.037151814E0
4.061752247E0,1.560347438E0,-3.178795815E0,-2.411898375E0
4.066708914E0,8.818660975E-1,-3.516707420E0,-4.046510696E0
4.071673706E0,6.583026052E-1,-3.308578968E0,-4.022620201E0
4.076630320E0,6.541904807E-1,-3.197127342E0,-3.745237112E0
4.081589852E0,6.946095824E-1,-3.338372231E0,-4.364474297E0
4.086550320E0,7.220429778E-1,-3.354525566E0,-4.390644073E0
4.091506935E0,7.340356708E-1,-3.266554832E0,-3.841956854E0
4.096466466E0,6.822701693E-1,-3.229569912E0,-3.748741388E0
4.101423602E0,6.164178848E-1,-3.231289864E0,-3.794328928E0
4.106384018E0,5.406931043E-1,-3.209199905E0,-3.619258881E0
4.111367664E0,5.023813248E-1,-3.115187645E0,-3.364152908E0
4.116300424E0,4.475018382E-1,-3.006271362E0,-3.321946383E0
4.121265997E0,3.522829711E-1,-2.923049927E0,-3.303383827E0
4.126243654E0,2.804956436E-1,-2.800528526E0,-3.149389029E0
4.131179591E0,2.500984669E-1,-2.664565086E0,-2.963635683E0
4.136140477E0,1.585848331E-1,-2.548635960E0,-2.925395250E0
4.141096727E0,1.152371764E-1,-2.459625244E0,-2.870808840E0
4.146053706E0,1.007516384E-1,-2.351819038E0,-2.688918829E0
4.151015372E0,3.610771894E-2,-2.284733772E0,-2.488777637E0
4.155973341E0,-2.157443762E-2,-2.258132458E0,-2.365213394E0
4.160930789E0,-7.719075680E-2,-2.298212051E0,-2.214980602E0
4.165908445E0,-9.723055363E-2,-2.368821144E0,-1.932203054E0
4.170850216E0,-1.421701908E-1,-2.469854355E0,-1.672044754E0
4.175807560E0,-1.684962511E-1,-2.622660160E0,-1.458188534E0
4.180794122E0,-1.809896231E-1,-2.774457455E0,-1.268907785E0
4.185727977E0,-1.924880743E-1,-2.925417900E0,-1.035318375E0
4.190688185E0,-1.829832792E-1,-3.017779350E0,-8.932735920E-1
4.195643966E0,-2.198321819E-1,-3.063581944E0,-8.382239342E-1
4.200605529E0,-2.527431250E-1,-3.043520927E0,-8.029508591E-1
4.205565060E0,-2.723885775E-1,-2.919277191E0,-8.401305676E-1
4.210520841E0,-3.604813814E-1,-2.719532967E0,-1.031078815E0
4.215482560E0,-4.573464394E-1,-2.525365353E0,-1.208022594E0
4.220440789E0,-5.565123558E-1,-2.269695282E0,-1.416601181E0
4.225400008E0,-6.727116108E-1,-2.033658028E0,-1.642490149E0
4.230360268E0,-7.732996941E-1,-1.807548523E0,-1.921780825E0
4.235318445E0,-8.589663506E-1,-1.615274429E0,-2.173746347E0
4.240285685E0,-9.136929512E-1,-1.466243744E0,-2.410702705E0
4.245241258E0,-9.764482975E-1,-1.379930019E0,-2.569551945E0
4.250201414E0,-1.050333142E0,-1.239089489E0,-2.811044693E0
4.255257352E0,-1.132490635E0,-1.142626286E0,-3.114347935E0
4.260315737E0,-1.198939323E0,-1.014079094E0,-3.404859543E0
4.265350789E0,-1.243264794E0,-9.094772339E-1,-3.622410774E0
4.270430477E0,-1.290364265E0,-7.757048607E-1,-3.804507732E0
4.275490060E0,-1.285310984E0,-6.695928574E-1,-3.947356224E0
4.280550685E0,-1.304928899E0,-5.723791122E-1,-4.099467278E0
4.285605841E0,-1.298906446E0,-4.681429863E-1,-4.245426178E0
4.290641102E0,-1.298070312E0,-3.675680161E-1,-4.384496212E0
4.295725268E0,-1.259715915E0,-3.035612106E-1,-4.386570454E0
4.300782768E0,-1.201407790E0,-1.585431099E-1,-4.443790436E0
4.305834643E0,-1.163338184E0,-6.212091446E-2,-4.568370342E0
4.310895372E0,-1.128101587E0,5.718183517E-2,-4.569199562E0
4.315931362E0,-1.074715853E0,1.791052818E-1,-4.526725292E0
4.320988393E0,-1.015001059E0,3.086824417E-1,-4.576639175E0
4.326073289E0,-9.551057816E-1,4.217076302E-1,-4.589879990E0
4.331108185E0,-8.894229531E-1,5.695433617E-1,-4.479480267E0
4.336162143E0,-8.634628057E-1,7.051568031E-1,-4.390035629E0
4.341224435E0,-8.326454163E-1,8.546791077E-1,-4.371677399E0
4.346282977E0,-7.522641420E-1,9.677281380E-1,-4.290264606E0
4.351339122E0,-6.544824839E-1,1.128407478E0,-4.104465485E0
4.356394487E0,-6.291307211E-1,1.308417320E0,-4.045470238E0
4.361454904E0,-5.818497539E-1,1.469870567E0,-3.992759228E0
4.366521674E0,-5.283438563E-1,1.646886349E0,-3.808996201E0
4.371568758E0,-4.959970415E-1,1.804117680E0,-3.636853218E0
4.376629383E0,-4.151825905E-1,1.963961601E0,-3.501378536E0
4.381607612E0,-3.460129797E-1,2.102829456E0,-3.310913563E0
4.386565841E0,-3.057408929E-1,2.277054787E0,-3.044787884E0
4.391478862E0,-2.362040281E-1,2.355821609E0,-2.761841297E0
4.396483862E0,-2.005972862E-1,2.414795876E0,-2.513156891E0
4.401445164E0,-1.567519307E-1,2.456690311E0,-2.159484863E0
4.406401727E0,-1.504545808E-1,2.451539993E0,-1.740480423E0
4.411361779E0,-1.601107121E-1,2.395455360E0,-1.391706944E0
4.416274122E0,-1.570744812E-1,2.298218727E0,-9.910616875E-1
4.421278862E0,-1.486418247E-1,2.180819511E0,-5.968356133E-1
4.426238914E0,-1.494919360E-1,2.028321743E0,-1.907391548E-1
4.431221570E0,-1.597405076E-1,1.891895294E0,1.249237061E-1
4.436156049E0,-1.777011454E-1,1.720746040E0,4.282460213E-1
4.441114643E0,-1.961683482E-1,1.621332645E0,6.959910393E-1
4.446097352E0,-2.204388231E-1,1.545878410E0,8.919296265E-1
4.451037768E0,-2.639893889E-1,1.519735336E0,9.502191544E-1
4.455992768E0,-3.029297292E-1,1.589191437E0,1.002817154E0
4.460954122E0,-3.574704230E-1,1.682497978E0,9.296884537E-1
4.465889174E0,-4.434274137E-1,1.808296680E0,7.847352028E-1
4.470869122E0,-4.960455298E-1,1.989524364E0,5.949988365E-1
4.475828133E0,-5.630854368E-1,2.231709480E0,3.755979538E-1
4.480813654E0,-6.233353615E-1,2.437526226E0,9.088850021E-2
4.485748029E0,-7.105365992E-1,2.647712231E0,-1.772890091E-1
4.490704904E0,-8.053736687E-1,2.858748913E0,-4.617738724E-1
4.495665320E0,-9.023433924E-1,3.040696144E0,-7.467699051E-1
4.500624331E0,-1.005216479E0,3.211736679E0,-1.013790131E0
4.505604018E0,-1.119644642E0,3.364442825E0,-1.265365601E0
4.510566258E0,-1.237887383E0,3.455978394E0,-1.433281898E0
4.515500997E0,-1.351481199E0,3.573522568E0,-1.608971596E0
4.520487664E0,-1.457921982E0,3.589139462E0,-1.667193413E0
4.525443758E0,-1.525348663E0,3.612004757E0,-1.685978889E0
4.530377872E0,-1.563510299E0,3.610149384E0,-1.648699760E0
4.535337039E0,-1.586632729E0,3.596026897E0,-1.600295067E0
4.540309174E0,-1.616307974E0,3.575579643E0,-1.505179405E0
4.545254227E0,-1.613951206E0,3.575653076E0,-1.404590607E0
4.550214070E0,-1.583955646E0,3.582278967E0,-1.312397957E0
4.555172143E0,-1.564225078E0,3.570542097E0,-1.190485001E0
4.560132039E0,-1.549447179E0,3.630949259E0,-1.096182823E0
4.565093758E0,-1.551269174E0,3.676981449E0,-1.029352188E0
4.570049695E0,-1.552379131E0,3.708091497E0,-9.947605133E-1
4.575010164E0,-1.526186109E0,3.829555035E0,-8.917274475E-1
4.579965685E0,-1.520005465E0,3.885662317E0,-8.230752945E-1
4.584924747E0,-1.526219130E0,3.988841057E0,-7.647371292E-1
4.589886622E0,-1.489157200E0,4.000524998E0,-6.639595032E-1
4.594845372E0,-1.432063699E0,4.069258690E0,-4.967737198E-1
4.599804279E0,-1.361445904E0,4.092548370E0,-3.324413300E-1
4.604763706E0,-1.312436581E0,4.109067917E0,-1.947374344E-1
4.609723237E0,-1.226770759E0,4.119338989E0,-2.173423767E-3
4.614681310E0,-1.161188364E0,4.126292229E0,2.023191452E-1
4.619641154E0,-1.095892906E0,4.161686897E0,3.687210083E-1
4.624599487E0,-1.051827431E0,4.144802570E0,5.714073181E-1
4.629558602E0,-1.004541159E0,4.176786423E0,7.507638931E-1
4.634517508E0,-9.295315742E-1,4.193770885E0,9.453201294E-1
4.639476622E0,-8.787795305E-1,4.220414162E0,1.181593895E0
4.644436362E0,-8.063808084E-1,4.211868286E0,1.335407257E0
4.649395477E0,-7.308952212E-1,4.181035995E0,1.586498737E0
4.654354643E0,-6.181170344E-1,4.181312084E0,1.856102943E0
4.659312352E0,-5.200885534E-1,4.115225792E0,2.060732841E0
4.664272508E0,-4.386064708E-1,4.045639992E0,2.281996250E0
4.669247091E0,-3.468964696E-1,3.982642651E0,2.610937595E0
4.674190789E0,-2.776773572E-1,3.917240858E0,2.851561546E0
4.679154904E0,-2.260266542E-1,3.818830729E0,3.042407990E0
4.684109070E0,-1.747599691E-1,3.740266562E0,3.284044266E0
4.689086831E0,-1.428095102E-1,3.679845095E0,3.543133736E0
4.694024227E0,-1.133397147E-1,3.608640909E0,3.700017929E0
4.698986258E0,-8.638140559E-2,3.536715508E0,3.793174744E0
4.703945164E0,-9.530986845E-2,3.485599518E0,3.958908081E0
4.708904122E0,-4.691661522E-2,3.476994038E0,4.075150490E0
4.713863706E0,-4.654597491E-2,3.434300184E0,4.120323181E0
4.718822977E0,-2.742220461E-2,3.414767027E0,4.130201340E0
4.723779695E0,-1.603072882E-2,3.413567066E0,4.205106735E0
4.728739643E0,-1.012426615E-2,3.480844259E0,4.175018787E0
4.733699018E0,-1.970061660E-2,3.513494968E0,4.030290604E0
4.738625268E0,-1.474648714E-2,3.611228228E0,3.950074196E0
4.743617508E0,-2.064037323E-2,3.715306044E0,3.855443001E0
4.748576414E0,-6.336110830E-2,3.821688414E0,3.662254333E0
4.753534279E0,-9.994250536E-2,3.927922726E0,3.458956718E0
4.758493602E0,-1.262605786E-1,4.012054443E0,3.326673508E0
4.763452924E0,-1.286931038E-1,4.131079674E0,3.157568932E0
4.768410633E0,-1.843132377E-1,4.174269199E0,2.973027229E0
4.773367352E0,-2.148679495E-1,4.258204460E0,2.815983295E0
4.778356102E0,-2.108051777E-1,4.241713524E0,2.715054512E0
4.783286727E0,-2.675371170E-1,4.295121193E0,2.627003670E0
4.788248810E0,-2.859904766E-1,4.282598495E0,2.506426811E0
4.793208081E0,-2.959114313E-1,4.250821590E0,2.456151485E0
4.798166258E0,-2.953498363E-1,4.240078926E0,2.500083447E0
4.803125320E0,-3.038370609E-1,4.221067905E0,2.406239510E0
4.808085477E0,-3.146276474E-1,4.197904587E0,2.349433422E0
4.813036779E0,-3.065422773E-1,4.160424232E0,2.379939079E0
4.818002664E0,-2.724044323E-1,4.122872353E0,2.385386467E0
4.822985633E0,-2.698813677E-1,4.101418972E0,2.322875500E0
4.827920685E0,-2.403329611E-1,4.071120262E0,2.309890747E0
4.832903810E0,-2.232214212E-1,4.039651871E0,2.329609871E0
4.837873549E0,-1.908557415E-1,4.037497997E0,2.310507774E0
4.842818706E0,-1.699810028E-1,4.016241550E0,2.219304085E0
4.847776258E0,-1.507277489E-1,3.990170240E0,2.182859421E0
4.852712091E0,-1.146020889E-1,4.002284050E0,2.177416801E0
4.857696102E0,-1.186995506E-1,4.011794090E0,2.121633530E0
4.862633966E0,-1.233875751E-1,4.008761406E0,1.972780228E0
4.867593862E0,-1.164591312E-1,4.019395351E0,1.950915337E0
4.872551831E0,-1.222798824E-1,4.005663872E0,1.929289818E0
4.877532508E0,-1.218307018E-1,4.046223640E0,1.817012787E0
4.882491987E0,-9.628319740E-2,3.990611553E0,1.745762825E0
4.887450737E0,-6.006407738E-2,3.987432480E0,1.787188530E0
4.892339435E0,-4.666519165E-2,3.965798855E0,1.740324974E0
4.897348237E0,-5.851697922E-2,3.933296680E0,1.635963917E0
4.902305008E0,-1.417207718E-2,3.930580854E0,1.646505356E0
4.907285685E0,1.217293739E-2,3.933189869E0,1.671133041E0
4.912219904E0,4.009485245E-3,3.909118652E0,1.580726624E0
4.917202195E0,1.854896545E-2,3.876316547E0,1.525711060E0
4.922142247E0,4.448199272E-2,3.896788836E0,1.556301117E0
4.927123602E0,4.577231407E-2,3.916990280E0,1.528589725E0
4.932060060E0,5.443859100E-2,3.917679787E0,1.500106812E0
4.937017924E0,9.430634975E-2,3.912488699E0,1.504014492E0
4.941973966E0,1.374802589E-1,3.895630836E0,1.578492165E0
4.946935112E0,1.748656034E-1,3.848572493E0,1.644454956E0
4.951894539E0,2.502743006E-1,3.839248896E0,1.677981377E0
4.956853654E0,2.831692696E-1,3.772676945E0,1.781893730E0
4.961765685E0,3.371214867E-1,3.720197678E0,1.930079460E0
4.966770112E0,3.993368149E-1,3.650802374E0,2.078938484E0
4.971728185E0,4.220218658E-1,3.584820986E0,2.181317806E0
4.976690060E0,4.724543095E-1,3.493227005E0,2.352023125E0
4.981648445E0,5.491672754E-1,3.395910025E0,2.533796787E0
4.986607716E0,5.715061426E-1,3.305216789E0,2.633557320E0
4.991567404E0,5.952132344E-1,3.226245642E0,2.706593513E0
4.996525424E0,6.448802352E-1,3.118770361E0,2.865572453E0
5.001485737E0,6.709046364E-1,3.061912298E0,2.976663113E0
5.006444695E0,6.953173280E-1,2.984016657E0,2.965988159E0
5.011356674E0,7.186468244E-1,2.924050331E0,2.987131119E0
5.016361727E0,7.093670368E-1,2.913681746E0,2.979784966E0
5.021320893E0,7.233659029E-1,2.921142817E0,2.932799339E0
5.026280424E0,6.766171455E-1,2.967127562E0,2.755212307E0
5.031263237E0,6.886773705E-1,2.989162207E0,2.602622986E0
5.036198393E0,6.637799740E-1,3.037806273E0,2.448939800E0
5.041184591E0,6.449012756E-1,3.111989737E0,2.200529099E0
5.046143133E0,6.147637367E-1,3.192647457E0,1.931798935E0
5.051075216E0,5.800561309E-1,3.295910835E0,1.635423660E0
5.056033758E0,5.358331203E-1,3.380359650E0,1.356554985E0
5.060993810E0,4.622200131E-1,3.483717918E0,9.921989441E-1
5.065975581E0,4.232841730E-1,3.526237011E0,6.282172203E-1
5.070929331E0,3.797307014E-1,3.605545998E0,3.171195984E-1
5.075870997E0,2.709847689E-1,3.682478905E0,-4.189109802E-2
5.080853445E0,2.115741968E-1,3.712842941E0,-4.086408615E-1
5.085788497E0,1.522556543E-1,3.698603153E0,-7.209768295E-1
5.090774018E0,6.421065331E-2,3.703248501E0,-9.699630737E-1
5.095706362E0,2.964448929E-2,3.678498268E0,-1.287156105E0
5.100664852E0,-5.906760693E-2,3.589632511E0,-1.515346527E0
5.105622924E0,-9.262180328E-2,3.529601574E0,-1.716913223E0
5.110582352E0,-1.337918043E-1,3.430786133E0,-1.887395859E0
5.115541154E0,-1.758410931E-1,3.280644894E0,-2.034334183E0
5.120500997E0,-1.976424456E-1,3.181699276E0,-2.141243935E0
5.125459435E0,-2.737822533E-1,3.045144558E0,-2.246629715E0
5.130417299E0,-3.064357042E-1,2.954445362E0,-2.341197014E0
5.135378966E0,-3.533542156E-1,2.828012943E0,-2.468274117E0
5.140334852E0,-3.982475996E-1,2.704440594E0,-2.544107437E0
5.145296310E0,-4.149140120E-1,2.597806931E0,-2.631347656E0
5.150252977E0,-4.610835314E-1,2.508583069E0,-2.732321739E0
5.155211831E0,-5.057208538E-1,2.429666519E0,-2.856847763E0
5.160182456E0,-5.514156818E-1,2.375692368E0,-2.930917263E0
5.165132820E0,-5.550564528E-1,2.304680824E0,-2.997326374E0
5.170091779E0,-5.790144205E-1,2.235869884E0,-3.111382961E0
5.175050945E0,-5.871992111E-1,2.194064617E0,-3.148525238E0
5.180009747E0,-6.201320887E-1,2.144147396E0,-3.168492794E0
5.184942299E0,-6.269893646E-1,2.087791443E0,-3.189672470E0
5.189927664E0,-6.513530016E-1,2.023724556E0,-3.177430153E0
5.194886883E0,-6.298216581E-1,1.986208439E0,-3.091610432E0
5.199845893E0,-6.195517778E-1,1.918128490E0,-2.980127811E0
5.204805529E0,-5.815967321E-1,1.844384670E0,-2.868789673E0
5.209764018E0,-5.392341614E-1,1.739687920E0,-2.711469650E0
5.214724539E0,-4.964628220E-1,1.643174171E0,-2.505191803E0
5.219685529E0,-4.428027868E-1,1.529333115E0,-2.275607109E0
5.224795477E0,-3.481030464E-1,1.344602585E0,-1.977991104E0
5.229851362E0,-2.541923523E-1,1.183881283E0,-1.666171074E0
5.234927508E0,-1.804655194E-1,1.010024071E0,-1.450942039E0
5.239966362E0,-1.278638244E-1,8.531942368E-1,-1.208393574E0
5.245025841E0,-8.935266733E-2,6.884679794E-1,-1.029952526E0
5.250085164E0,-5.455231667E-2,5.593228340E-1,-8.835530281E-1
5.255093706E0,-4.902923107E-2,4.234819412E-1,-7.772793770E-1
5.260184747E0,-4.033249617E-2,3.051519394E-1,-6.794590950E-1
5.265258445E0,-3.430199623E-2,2.366800308E-1,-6.933879852E-1
5.270315060E0,-6.675940752E-2,1.890339851E-1,-7.063665390E-1
5.275342091E0,-9.222728014E-2,1.668190956E-1,-7.970042229E-1
5.280375633E0,-9.190618992E-2,1.334056854E-1,-9.011306763E-1
5.285433654E0,-1.305598617E-1,1.528816223E-1,-1.076382637E0
5.290490893E0,-1.842406690E-1,2.226734161E-1,-1.303376675E0
5.295552404E0,-2.269677520E-1,2.537727356E-1,-1.546523094E0
5.300608862E0,-3.091403246E-1,3.032598495E-1,-1.825174809E0
5.305665268E0,-3.641912639E-1,3.633503914E-1,-2.115977764E0
5.310727768E0,-4.450846612E-1,4.144020081E-1,-2.462498665E0
5.315781831E0,-5.258080959E-1,4.319753647E-1,-2.755308628E0
5.320841049E0,-6.309093833E-1,4.394121170E-1,-3.016746521E0
5.325899122E0,-7.057011127E-1,4.026193619E-1,-3.333768368E0
5.330953758E0,-7.842059135E-1,3.928318024E-1,-3.573137760E0
5.336015685E0,-8.596669436E-1,3.065252304E-1,-3.800449848E0
5.341073862E0,-9.707928300E-1,2.341709137E-1,-4.009234428E0
5.346132924E0,-1.055732965E0,9.856987000E-2,-4.205270290E0
5.351048758E0,-1.110106230E0,-4.498577118E-2,-4.268701553E0
5.356056727E0,-1.141607881E0,-1.738901138E-1,-4.333186150E0
5.361011883E0,-1.205203176E0,-3.644871712E-1,-4.410474300E0
5.365973758E0,-1.270158410E0,-6.172380447E-1,-4.432094574E0
5.370933758E0,-1.279005766E0,-7.551174164E-1,-4.226082325E0
5.375892612E0,-1.327861547E0,-9.410352707E-1,-4.309589386E0
5.380849799E0,-1.378627062E0,-1.091459274E0,-4.391045570E0
5.385810477E0,-1.443524837E0,-1.203950882E0,-4.300745010E0
5.390770164E0,-1.455693960E0,-1.345234871E0,-4.289764881E0
5.395729747E0,-1.508692265E0,-1.460275650E0,-4.308037758E0
5.400689122E0,-1.537909627E0,-1.589611053E0,-4.322113991E0
5.405646154E0,-1.557759523E0,-1.694644928E0,-4.262431622E0
5.410623810E0,-1.580349684E0,-1.741702080E0,-4.188793182E0
5.415565320E0,-1.612496495E0,-1.854458809E0,-4.241345882E0
5.420521102E0,-1.633013248E0,-1.937326431E0,-4.195720673E0
5.425434591E0,-1.662974596E0,-1.979655266E0,-4.110076904E0
5.430438029E0,-1.655372262E0,-2.094929695E0,-4.075220108E0
5.435398549E0,-1.676054478E0,-2.111394882E0,-3.932345867E0
5.440358341E0,-1.703603983E0,-2.172781944E0,-3.964198589E0
5.445316987E0,-1.730745792E0,-2.204447269E0,-3.851779461E0
5.450302299E0,-1.735902548E0,-2.191850185E0,-3.752729416E0
5.455237716E0,-1.727651119E0,-2.272734165E0,-3.676824331E0
5.460195789E0,-1.689529657E0,-2.363708019E0,-3.447957754E0
5.465154904E0,-1.675802350E0,-2.437935829E0,-3.287372589E0
5.470133602E0,-1.628844738E0,-2.555144310E0,-3.142018318E0
5.475073393E0,-1.586060166E0,-2.628562927E0,-2.923858881E0
5.480033289E0,-1.568971634E0,-2.732749939E0,-2.705297232E0
5.485007872E0,-1.526961684E0,-2.826850891E0,-2.497422934E0
5.489948966E0,-1.521456242E0,-2.924880505E0,-2.348913908E0
5.494907352E0,-1.497661114E0,-3.003281593E0,-2.195610046E0
5.499890320E0,-1.464933157E0,-3.109933853E0,-1.986852646E0
5.504825372E0,-1.467928171E0,-3.199079514E0,-1.845468283E0
5.509785685E0,-1.435246468E0,-3.323818207E0,-1.717285633E0
5.514762195E0,-1.414519906E0,-3.433935165E0,-1.580330849E0
5.519727872E0,-1.383864641E0,-3.476805687E0,-1.479323626E0
5.524664695E0,-1.407710791E0,-3.560212135E0,-1.425961018E0
5.529622560E0,-1.397665739E0,-3.576754570E0,-1.372774601E0
5.534577664E0,-1.422922492E0,-3.615027428E0,-1.343393564E0
5.539537768E0,-1.440560222E0,-3.584214211E0,-1.323426247E0
5.544499174E0,-1.460114956E0,-3.594486237E0,-1.367918015E0
5.549456518E0,-1.500801086E0,-3.559778690E0,-1.443410158E0
5.554415060E0,-1.521950841E0,-3.537587166E0,-1.463861465E0
5.559374435E0,-1.540407538E0,-3.492080212E0,-1.546683311E0
5.564333029E0,-1.611171126E0,-3.516653061E0,-1.651564121E0
5.569291102E0,-1.607644677E0,-3.525179863E0,-1.695082188E0
5.574251102E0,-1.640091181E0,-3.486619949E0,-1.754108906E0
5.579210477E0,-1.708614826E0,-3.494395733E0,-1.855504036E0
5.584174122E0,-1.755859017E0,-3.479170799E0,-1.973336458E0
5.589129956E0,-1.777483702E0,-3.464980125E0,-2.050839424E0
5.594088341E0,-1.864464998E0,-3.427952766E0,-2.131463051E0
5.599045841E0,-1.930985689E0,-3.428001404E0,-2.258869886E0
5.604007195E0,-1.979678869E0,-3.400652885E0,-2.404952526E0
5.608965841E0,-2.008549929E0,-3.422579765E0,-2.424455166E0
5.613924799E0,-2.077486753E0,-3.400571823E0,-2.528393984E0
5.618884747E0,-2.081479788E0,-3.389861107E0,-2.667136908E0
5.623882091E0,-2.104508162E0,-3.402416229E0,-2.704535723E0
5.628824852E0,-2.120556116E0,-3.421942711E0,-2.737761736E0
5.633759487E0,-2.208572626E0,-3.434134483E0,-2.798009157E0
5.638718549E0,-2.239526510E0,-3.424696922E0,-2.892538309E0
5.643700737E0,-2.263992310E0,-3.420155525E0,-2.907052279E0
5.648659904E0,-2.270138741E0,-3.396907806E0,-2.904567242E0
5.653619487E0,-2.320517540E0,-3.438745499E0,-3.004824162E0
5.658556258E0,-2.338624001E0,-3.433492184E0,-3.017011881E0
5.663515737E0,-2.331735611E0,-3.395470619E0,-2.957663059E0
5.668498289E0,-2.343010187E0,-3.399010658E0,-2.982593060E0
5.673455320E0,-2.358106852E0,-3.391782761E0,-3.044532061E0
5.678414487E0,-2.346004963E0,-3.385724068E0,-2.987828493E0
5.683374383E0,-2.325768471E0,-3.335451126E0,-2.922614336E0
5.688332924E0,-2.352517605E0,-3.310436249E0,-2.951816082E0
5.693292299E0,-2.363949060E0,-3.272471428E0,-2.996498346E0
5.698250893E0,-2.362488985E0,-3.199986458E0,-2.965564013E0
5.703209383E0,-2.388856888E0,-3.121652603E0,-2.971300602E0
5.708169539E0,-2.395244122E0,-3.032717705E0,-3.063895464E0
5.713127612E0,-2.412553310E0,-2.945104599E0,-3.080470085E0
5.718086727E0,-2.376214027E0,-2.834719658E0,-3.037446022E0
5.723045789E0,-2.398494244E0,-2.730193138E0,-3.037469387E0
5.728005112E0,-2.381153584E0,-2.626654148E0,-3.101804733E0
5.732964487E0,-2.359758377E0,-2.566938400E0,-3.045739174E0
5.737900581E0,-2.322166204E0,-2.445552826E0,-2.976492405E0
5.742859904E0,-2.265860558E0,-2.372364044E0,-2.929481030E0
5.747818497E0,-2.279029846E0,-2.301692963E0,-2.889863014E0
5.752778914E0,-2.251297712E0,-2.223710060E0,-2.742222786E0
5.757736987E0,-2.208626270E0,-2.145314217E0,-2.617500305E0
5.762696049E0,-2.136470795E0,-2.080657482E0,-2.553449631E0
5.767654852E0,-2.084887505E0,-2.043824196E0,-2.403558731E0
5.772638654E0,-2.029526234E0,-2.034428596E0,-2.214911938E0
5.777573133E0,-1.977147341E0,-1.990098000E0,-2.054057121E0
5.782532039E0,-1.922836542E0,-1.984755039E0,-1.922821999E0
5.787491935E0,-1.873401642E0,-1.979883194E0,-1.725033283E0
5.792449956E0,-1.818979979E0,-1.967984676E0,-1.536617279E0
5.797408966E0,-1.776013851E0,-1.946518421E0,-1.409869671E0
5.802368706E0,-1.725279808E0,-1.929633141E0,-1.303755283E0
5.807327352E0,-1.707090020E0,-1.905190945E0,-1.151051998E0
5.812286570E0,-1.632785082E0,-1.896812439E0,-1.035102844E0
5.817246414E0,-1.648253322E0,-1.844574928E0,-1.008499146E0
5.822156570E0,-1.626654625E0,-1.772554874E0,-9.688568115E-1
5.827164227E0,-1.605720997E0,-1.720304489E0,-8.832058907E-1
5.832122664E0,-1.573963404E0,-1.667035580E0,-8.779397011E-1
5.837081674E0,-1.578975677E0,-1.578833580E0,-9.453563690E-1
5.842040685E0,-1.584811449E0,-1.477192879E0,-9.661765099E-1
5.847000685E0,-1.579483509E0,-1.395446777E0,-9.908981323E-1
5.851958914E0,-1.603807330E0,-1.278503895E0,-1.101250172E0
5.856919331E0,-1.598164320E0,-1.164657116E0,-1.261797428E0
5.861876518E0,-1.620137811E0,-1.030024052E0,-1.372646332E0
5.866836570E0,-1.655512571E0,-8.435173035E-1,-1.496491909E0
5.871794852E0,-1.683110356E0,-7.130651474E-1,-1.729866982E0
5.876754018E0,-1.722404003E0,-5.479702950E-1,-1.922774315E0
5.881714591E0,-1.728356242E0,-4.081974030E-1,-2.126059532E0
5.886673497E0,-1.741904616E0,-2.630419731E-1,-2.338195801E0
5.891630945E0,-1.799471021E0,-1.082658768E-1,-2.572090626E0
5.896590633E0,-1.791434646E0,1.987552643E-2,-2.747046471E0
5.901550112E0,-1.821210623E0,1.591329575E-1,-2.899755478E0
5.906509018E0,-1.848545671E0,3.112697601E-1,-3.114663601E0
5.911423810E0,-1.838541985E0,4.197468758E-1,-3.288193226E0
5.916427299E0,-1.849712133E0,5.247154236E-1,-3.396522522E0
5.921385841E0,-1.824292183E0,6.327815056E-1,-3.466872215E0
5.926345164E0,-1.814559937E0,6.961159706E-1,-3.551558971E0
5.931325424E0,-1.789611340E0,7.744159698E-1,-3.583448410E0
5.936287612E0,-1.742573142E0,8.329839706E-1,-3.549191952E0
5.941221570E0,-1.692958117E0,9.070630074E-1,-3.556749344E0
5.946181154E0,-1.642712831E0,9.802608490E-1,-3.533621311E0
5.951138758E0,-1.577694774E0,1.056602955E0,-3.489827633E0
5.956095477E0,-1.517008543E0,1.107186794E0,-3.401350498E0
5.961054383E0,-1.455830812E0,1.213179111E0,-3.397224426E0
5.966014747E0,-1.439568758E0,1.328830719E0,-3.372084141E0
5.970974852E0,-1.358093262E0,1.439885139E0,-3.308878899E0
5.975935529E0,-1.295197964E0,1.591709137E0,-3.293568134E0
5.980891049E0,-1.212477088E0,1.724615574E0,-3.244483471E0
5.985851883E0,-1.133670688E0,1.872396946E0,-3.204292297E0
5.990809227E0,-1.058624744E0,2.018585205E0,-3.122399330E0
5.995771518E0,-9.727346301E-1,2.166052341E0,-3.067695618E0
6.000726779E0,-8.854607344E-1,2.262567043E0,-2.939325809E0
6.005687039E0,-7.819743752E-1,2.366269112E0,-2.784603119E0
6.010601154E0,-6.479423046E-1,2.436877251E0,-2.615159988E0
6.015607299E0,-5.514940619E-1,2.523600578E0,-2.408488750E0
6.020565945E0,-4.690530300E-1,2.585795403E0,-2.200432777E0
6.025526831E0,-3.161737919E-1,2.612507820E0,-1.925734043E0
6.030487768E0,-1.927882433E-1,2.623641014E0,-1.653322697E0
6.035443081E0,-5.542290211E-2,2.603063583E0,-1.368472576E0
6.040401362E0,7.499659061E-2,2.568212509E0,-1.077982426E0
6.045361674E0,1.871047020E-1,2.531715393E0,-7.743430138E-1
6.050343393E0,3.246251345E-1,2.484679699E0,-5.194211006E-1
6.055277143E0,4.227434397E-1,2.450881004E0,-2.870779037E-1
6.060260060E0,5.499479771E-1,2.388532639E0,-5.279731750E-2
6.065220164E0,6.484057307E-1,2.357146263E0,1.352157593E-1
6.070179643E0,7.400984764E-1,2.311582565E0,2.745752335E-1
6.075116206E0,8.057833910E-1,2.328499317E0,4.010615349E-1
6.080097299E0,9.015574455E-1,2.355984688E0,4.669380188E-1
6.085055268E0,9.737693071E-1,2.414804459E0,4.644365311E-1
6.090014227E0,1.015539885E0,2.450218201E0,4.628167152E-1
6.094974227E0,1.081751227E0,2.514702320E0,4.042677879E-1
6.099910945E0,1.121471882E0,2.605282307E0,2.883019447E-1
6.104891206E0,1.166854143E0,2.670169353E0,1.699604988E-1
6.109851206E0,1.235234022E0,2.810698509E0,5.154609680E-4
6.114811674E0,1.259622812E0,2.892781734E0,-1.581439972E-1
6.119746362E0,1.281924963E0,3.003839970E0,-3.473110199E-1
6.124734852E0,1.294002771E0,3.101912022E0,-5.334377289E-1
6.129666102E0,1.321172953E0,3.181555271E0,-7.271165848E-1
6.134624227E0,1.328919172E0,3.267576218E0,-9.378995895E-1
6.139582404E0,1.361554384E0,3.361009121E0,-1.089744568E0
6.144541518E0,1.360971928E0,3.389306545E0,-1.254673958E0
6.149500893E0,1.410304785E0,3.444952965E0,-1.363535881E0
6.154460737E0,1.453962088E0,3.469645977E0,-1.507424355E0
6.159420060E0,1.491585255E0,3.453067780E0,-1.564471245E0
6.164378914E0,1.532238245E0,3.470998764E0,-1.608916283E0
6.169337872E0,1.599495173E0,3.453322887E0,-1.619256973E0
6.174297299E0,1.647500992E0,3.420914173E0,-1.624149323E0
6.179254643E0,1.740622997E0,3.385280609E0,-1.611505508E0
6.184232456E0,1.816961288E0,3.396545172E0,-1.552592278E0
6.189173185E0,1.891746044E0,3.343341112E0,-1.511636734E0
6.194133497E0,1.980365276E0,3.360126734E0,-1.474281311E0
6.199091102E0,2.072619438E0,3.310080051E0,-1.380389214E0
6.204050841E0,2.161292553E0,3.264929295E0,-1.337410927E0
6.209009695E0,2.229416370E0,3.282023907E0,-1.282775879E0
6.213968549E0,2.315139771E0,3.267908812E0,-1.259310722E0
6.218928237E0,2.408807993E0,3.265842438E0,-1.182981968E0
6.223904747E0,2.501098871E0,3.278421164E0,-1.151782990E0
6.228867924E0,2.562711477E0,3.272223234E0,-1.114905834E0
6.233827299E0,2.670264006E0,3.285887003E0,-1.079282284E0
6.238763602E0,2.778082371E0,3.272031069E0,-9.942617416E-1
6.243746102E0,2.846464634E0,3.266965628E0,-9.367451668E-1
6.248681727E0,2.950743914E0,3.247103453E0,-8.865642548E-1
6.253642143E0,3.060879230E0,3.251224756E0,-7.604260445E-1
6.258624487E0,3.169694662E0,3.227354527E0,-6.441702843E-1
6.263586674E0,3.243469000E0,3.195265055E0,-5.994606018E-1
6.268544279E0,3.349498749E0,3.131574631E0,-4.563593864E-1
6.273503602E0,3.480991840E0,3.101539135E0,-2.723188400E-1
6.278508706E0,3.597470760E0,3.036024332E0,-1.669373512E-1
6.283569331E0,3.749654531E0,2.949922323E0,6.305074692E-2
6.288602143E0,3.856492996E0,2.878267527E0,2.793769836E-1
6.293686674E0,3.964460850E0,2.804438829E0,4.192743301E-1
6.298717612E0,4.066045761E0,2.707971811E0,5.434293747E-1
6.303803497E0,4.183920383E0,2.619841576E0,7.059764862E-1
6.308832091E0,4.274603844E0,2.538724422E0,8.743004799E-1
6.313917924E0,4.372888565E0,2.416529179E0,1.023408413E0
6.318948185E0,4.451938152E0,2.328243494E0,1.130275249E0
6.324036414E0,4.536833763E0,2.271252155E0,1.213121891E0
6.329065216E0,4.605470657E0,2.188819408E0,1.344557285E0
6.334145633E0,4.649316788E0,2.159599543E0,1.396846771E0
6.339182091E0,4.718093395E0,2.052323103E0,1.411331654E0
6.344238029E0,4.771781445E0,2.008053303E0,1.487883568E0
6.349297716E0,4.805630684E0,1.955040693E0,1.478184223E0
6.354352820E0,4.843448639E0,1.941116095E0,1.444592476E0
6.359414174E0,4.868685722E0,1.908654451E0,1.420313835E0
6.364469487E0,4.890754700E0,1.879061460E0,1.405361176E0
6.369530529E0,4.883353233E0,1.864193201E0,1.335069656E0
6.374589956E0,4.896475792E0,1.856451750E0,1.195104599E0
6.379646466E0,4.910810471E0,1.874792576E0,1.095544815E0
6.384705268E0,4.914247990E0,1.871014357E0,1.021885872E0
6.389761206E0,4.906534195E0,1.887919664E0,8.784980774E-1
6.394818810E0,4.882607937E0,1.920220375E0,7.228131294E-1
6.399876779E0,4.863691807E0,1.905394077E0,5.907883644E-1
6.404844435E0,4.829410076E0,1.943201303E0,4.807577133E-1
6.409849018E0,4.814237595E0,1.959427357E0,3.008875847E-1
6.414806674E0,4.790650845E0,1.936616659E0,1.117820740E-1
6.419769799E0,4.763627052E0,1.955900431E0,3.751325607E-2
6.424728497E0,4.727982998E0,1.952224016E0,-8.926296234E-2
6.429687456E0,4.681005001E0,1.953767300E0,-2.612423897E-1
6.434646518E0,4.665432453E0,1.931429386E0,-3.634567261E-1
6.439631987E0,4.623847961E0,1.913698673E0,-4.295611382E-1
6.444569070E0,4.583974838E0,1.897645712E0,-5.592241287E-1
6.449522299E0,4.579563618E0,1.873335123E0,-6.691222191E-1
6.454481258E0,4.533737183E0,1.823770761E0,-7.088270187E-1
6.459437924E0,4.486858368E0,1.810927868E0,-7.953023911E-1
6.464397039E0,4.455488205E0,1.762765646E0,-9.140577316E-1
6.469357091E0,4.424987793E0,1.731601000E0,-1.002746582E0
6.474336674E0,4.416805744E0,1.695820570E0,-1.030268192E0
6.479276258E0,4.361088753E0,1.686607599E0,-1.103681087E0
6.484237039E0,4.334376335E0,1.646039486E0,-1.211266994E0
6.489194539E0,4.302900314E0,1.638885498E0,-1.268925190E0
6.494160008E0,4.280837536E0,1.626741648E0,-1.298161983E0
6.499111518E0,4.236933708E0,1.612188339E0,-1.389653683E0
6.504072768E0,4.171004295E0,1.611903667E0,-1.476275921E0
6.509030789E0,4.135649681E0,1.563946724E0,-1.476666927E0
6.513990841E0,4.097157478E0,1.559408665E0,-1.500738144E0
6.518949122E0,4.057888508E0,1.538563251E0,-1.591569424E0
6.523910216E0,4.020141602E0,1.504042149E0,-1.617511749E0
6.528865789E0,4.005529881E0,1.516196728E0,-1.609655857E0
6.533827247E0,3.939739704E0,1.503323078E0,-1.615863800E0
6.538784799E0,3.921076775E0,1.489878178E0,-1.621872425E0
6.543745164E0,3.889801025E0,1.452395916E0,-1.594229221E0
6.548705112E0,3.881930351E0,1.460663319E0,-1.547409058E0
6.553659643E0,3.854646206E0,1.450556278E0,-1.517439365E0
6.558618862E0,3.834361553E0,1.439282417E0,-1.487538815E0
6.563581258E0,3.835790157E0,1.398723125E0,-1.398091316E0
6.568536727E0,3.813963413E0,1.358270645E0,-1.278026581E0
6.573496779E0,3.800179958E0,1.337357044E0,-1.230307579E0
6.578458497E0,3.782948971E0,1.319775105E0,-1.149790764E0
6.583413914E0,3.803472042E0,1.294332504E0,-1.005413532E0
6.588375581E0,3.792616367E0,1.266069412E0,-8.858327866E-1
6.593336779E0,3.748782635E0,1.228434563E0,-7.792663574E-1
6.598294435E0,3.775330544E0,1.181848049E0,-6.642656326E-1
6.603250945E0,3.765027523E0,1.150634766E0,-4.978079796E-1
6.608213289E0,3.737377882E0,1.115908623E0,-3.899316788E-1
6.613170789E0,3.683516741E0,1.090046406E0,-2.856745720E-1
6.618129904E0,3.682718754E0,1.015794754E0,-1.491942406E-1
6.623042143E0,3.650173903E0,9.872875214E-1,-1.178836823E-2
6.628048341E0,3.573918581E0,9.672069550E-1,3.409576416E-2
6.633006883E0,3.552764893E0,9.570813179E-1,9.287977219E-2
6.637965841E0,3.480760813E0,9.565553665E-1,1.529850960E-1
6.642925893E0,3.410788059E0,9.368991852E-1,1.402630806E-1
6.647907820E0,3.333044529E0,9.816732407E-1,1.027960777E-1
6.652842872E0,3.275230169E0,1.033660412E0,4.000282288E-2
6.657802768E0,3.171501637E0,1.063758373E0,-4.393577576E-3
6.662761362E0,3.082212448E0,1.138942719E0,-1.310958862E-1
6.667720268E0,2.954540968E0,1.206174850E0,-2.851343155E-1
6.672680060E0,2.845826387E0,1.301187992E0,-4.210329056E-1
6.677638081E0,2.724877596E0,1.397258759E0,-6.060132980E-1
6.682597352E0,2.608158112E0,1.498864651E0,-7.994174957E-1
6.687576310E0,2.466340542E0,1.557708740E0,-1.046693802E0
6.692515320E0,2.335880995E0,1.645091534E0,-1.255279064E0
6.697500945E0,2.177076340E0,1.727160931E0,-1.474906445E0
6.702433445E0,2.029119492E0,1.803142071E0,-1.733085155E0
6.707393289E0,1.883384466E0,1.841479778E0,-1.931366920E0
6.712376206E0,1.734744787E0,1.896758556E0,-2.110726833E0
6.717311570E0,1.614930868E0,1.903666973E0,-2.288918495E0
6.722297612E0,1.503125906E0,1.928812981E0,-2.470260143E0
6.727229591E0,1.390828490E0,1.906856060E0,-2.605749130E0
6.732188133E0,1.250310183E0,1.916387081E0,-2.695101738E0
6.737146883E0,1.115192652E0,1.877951145E0,-2.822595596E0
6.742106258E0,9.733245373E-1,1.831905842E0,-2.885622501E0
6.747064956E0,8.723134995E-1,1.787475109E0,-2.903642178E0
6.752024852E0,7.616746426E-1,1.785041332E0,-2.948640347E0
6.756983497E0,6.603522301E-1,1.723881245E0,-2.984925270E0
6.761942247E0,5.228226185E-1,1.706835270E0,-2.995873928E0
6.766919122E0,4.299607277E-1,1.671451092E0,-2.993607521E0
6.771860060E0,3.324918747E-1,1.687456131E0,-3.026136398E0
6.776819643E0,2.483084202E-1,1.649314404E0,-3.004871845E0
6.781778341E0,1.155793667E-1,1.638713360E0,-3.008799076E0
6.786737352E0,2.285647392E-2,1.639124870E0,-3.004376888E0
6.791697352E0,-5.854487419E-2,1.655628681E0,-2.962848663E0
6.796655685E0,-1.644041538E-1,1.681412220E0,-2.955870628E0
6.801614643E0,-2.347744703E-1,1.688238144E0,-2.906693459E0
6.806526987E0,-3.162734509E-1,1.700946808E0,-2.843722343E0
6.811532352E0,-3.856115341E-1,1.728416920E0,-2.738348007E0
6.816491987E0,-5.014733076E-1,1.729439735E0,-2.649690628E0
6.821450737E0,-5.042701960E-1,1.737658024E0,-2.515386581E0
6.826433289E0,-6.166911125E-1,1.734435081E0,-2.349442482E0
6.831394279E0,-6.482315063E-1,1.708798409E0,-2.177608967E0
6.836328237E0,-7.129537463E-1,1.668677330E0,-1.958661079E0
6.841287195E0,-7.281098366E-1,1.638008118E0,-1.771386623E0
6.846247820E0,-7.906810045E-1,1.562601566E0,-1.545711040E0
6.851231674E0,-8.361703157E-1,1.509750366E0,-1.321964741E0
6.856163602E0,-8.932610750E-1,1.415750027E0,-1.085001945E0
6.861123966E0,-9.253591299E-1,1.337925911E0,-8.800849915E-1
6.866079852E0,-9.814267755E-1,1.245621681E0,-6.803426743E-1
6.871064279E0,-1.033207893E0,1.182030201E0,-4.734911919E-1
6.876042039E0,-1.110765576E0,1.106726170E0,-3.475966454E-1
6.880959643E0,-1.188676357E0,1.046202183E0,-2.232627869E-1
6.885918445E0,-1.257241845E0,1.031417847E0,-1.219506264E-1
6.890877195E0,-1.334541321E0,9.953937531E-1,-7.930946350E-2
6.895836674E0,-1.408641100E0,1.000228882E0,-6.414175034E-2
6.900795320E0,-1.534523010E0,9.859790802E-1,-5.489253998E-2
6.905755372E0,-1.616516232E0,1.021868229E0,-1.257276535E-1
6.910737977E0,-1.726988077E0,1.048035622E0,-2.119922638E-1
6.915672664E0,-1.821675777E0,1.102048874E0,-3.141984940E-1
6.920633341E0,-1.923658133E0,1.141000271E0,-4.370627403E-1
6.925590997E0,-2.032688141E0,1.173940182E0,-5.882267952E-1
6.930551258E0,-2.146686792E0,1.248346329E0,-7.513008118E-1
6.935509122E0,-2.263418198E0,1.256058216E0,-8.885345459E-1
6.940468341E0,-2.387988567E0,1.302011967E0,-1.081658363E0
6.945427872E0,-2.506272078E0,1.318521023E0,-1.228483200E0
6.950383289E0,-2.599362373E0,1.331449032E0,-1.382153988E0
6.955345060E0,-2.741702080E0,1.309194565E0,-1.495371819E0
6.960304435E0,-2.830513954E0,1.308686733E0,-1.594950676E0
6.965264643E0,-2.932942867E0,1.298206329E0,-1.674288750E0
6.970223914E0,-3.032448530E0,1.210286617E0,-1.762584209E0
6.975183810E0,-3.128985405E0,1.188002110E0,-1.776509762E0
6.980160633E0,-3.220560312E0,1.176029205E0,-1.821621418E0
6.985099279E0,-3.294350863E0,1.077799797E0,-1.862535477E0
6.990058497E0,-3.379829884E0,1.034590721E0,-1.825160503E0
6.995018602E0,-3.419353962E0,9.526782036E-1,-1.774374008E0
6.999977456E0,-3.515570164E0,8.796215057E-1,-1.748584747E0
7.004939174E0,-3.558524847E0,8.415284157E-1,-1.695276260E0
7.009849799E0,-3.602388620E0,7.615399361E-1,-1.631147861E0
7.014855685E0,-3.649140358E0,7.168469429E-1,-1.529913902E0
7.019816154E0,-3.739776611E0,6.541619301E-1,-1.477593899E0
7.024775424E0,-3.771987915E0,6.167545319E-1,-1.435811043E0
7.029749227E0,-3.827391148E0,6.118464470E-1,-1.337590694E0
7.034687143E0,-3.895627975E0,6.132731438E-1,-1.290170670E0
7.039646570E0,-3.948697805E0,5.877046585E-1,-1.243366241E0
7.044607195E0,-3.967212439E0,5.425462723E-1,-1.165822029E0
7.049588602E0,-3.996703625E0,5.187692642E-1,-1.074078083E0
7.054540477E0,-4.019867897E0,5.286264420E-1,-9.939694405E-1
7.059486518E0,-4.053616524E0,5.077486038E-1,-9.348964691E-1
7.064464904E0,-4.038418293E0,3.608384132E-1,-7.484159470E-1
7.069429070E0,-4.047566414E0,4.353904724E-1,-3.811755180E-1
7.074362560E0,-4.104926109E0,3.918080330E-1,-4.763813019E-1
7.079323133E0,-4.139460564E0,3.977365494E-1,-3.999924660E-1
7.084282143E0,-4.179577827E0,4.299111366E-1,-1.825308800E-1
7.089241049E0,-4.208501816E0,3.762512207E-1,-1.083674431E-1
7.094200320E0,-4.190261841E0,3.304104805E-1,7.409715652E-2
7.099235008E0,-4.191723824E0,2.639575005E-1,2.168378830E-1
7.104293497E0,-4.145052433E0,1.656079292E-1,5.959205627E-1
7.109357039E0,-4.122183323E0,8.333063126E-2,7.185878754E-1
7.114386883E0,-4.125152111E0,-4.488086700E-2,8.748836517E-1
7.119445997E0,-4.106315136E0,-7.527732849E-2,1.122329235E0
7.124502820E0,-4.130143166E0,-1.344938278E-1,1.253106594E0
7.129561466E0,-4.175010204E0,-1.985116005E-1,1.315337658E0
7.134621310E0,-4.176305771E0,-2.169594765E-1,1.467123032E0
7.139678914E0,-4.172464371E0,-2.805776596E-1,1.574596405E0
7.144735477E0,-4.184820652E0,-3.105549812E-1,1.683227062E0
7.149795112E0,-4.208698273E0,-3.378224373E-1,1.730980396E0
7.154836154E0,-4.174669743E0,-3.649463654E-1,1.791938305E0
7.159910008E0,-4.178424358E0,-3.654379845E-1,1.856696129E0
7.164967664E0,-4.200838089E0,-3.777441978E-1,1.841370106E0
7.170027560E0,-4.220475674E0,-3.708276749E-1,1.836777210E0
7.175085477E0,-4.235016346E0,-3.207879066E-1,1.850012302E0
7.180143549E0,-4.251743317E0,-2.684555054E-1,1.761276245E0
7.185204122E0,-4.294801235E0,-2.282600403E-1,1.709130764E0
7.190257299E0,-4.330917835E0,-1.596856117E-1,1.619090080E0
7.195317091E0,-4.326751709E0,-1.394410133E-1,1.555495262E0
7.200374956E0,-4.330149174E0,-9.112644196E-2,1.537237644E0
7.205433237E0,-4.372488499E0,-9.870910645E-2,1.434718609E0
7.210493549E0,-4.393911362E0,-1.097979546E-1,1.410357475E0
7.215551102E0,-4.387456417E0,-6.000471115E-2,1.389642715E0
7.220609643E0,-4.425001144E0,-5.249881744E-2,1.274210930E0
7.225614279E0,-4.456594944E0,-4.740953445E-2,1.197223663E0
7.230574695E0,-4.446519375E0,2.219963074E-2,1.156152248E0
7.235531622E0,-4.485745430E0,4.621934891E-2,1.064812660E0
7.240489904E0,-4.509791374E0,8.418369293E-2,9.420924187E-1
7.245449070E0,-4.528320789E0,1.381907463E-1,8.595242500E-1
7.250432091E0,-4.527025223E0,1.340260506E-1,8.002662659E-1
7.255438706E0,-4.493791103E0,2.143964767E-1,7.398505211E-1
7.260471206E0,-4.509974480E0,1.993560791E-1,5.655469894E-1
7.265530997E0,-4.491848946E0,2.255754471E-1,5.813899040E-1
7.270613341E0,-4.492100716E0,2.855062485E-1,5.191197395E-1
7.275645737E0,-4.489528656E0,2.874755859E-1,3.686137199E-1
7.280705216E0,-4.459987164E0,3.131546974E-1,3.814158440E-1
7.285763237E0,-4.444241524E0,3.741335869E-1,3.753652573E-1
7.290822091E0,-4.459046841E0,4.056162834E-1,2.858200073E-1
7.295879695E0,-4.446971416E0,3.907103539E-1,2.538657188E-1
7.300963133E0,-4.403126240E0,4.466733932E-1,2.580251694E-1
7.305996206E0,-4.346889973E0,4.583530426E-1,2.836480141E-1
7.311080633E0,-4.316010475E0,4.712858200E-1,2.042403221E-1
7.316112820E0,-4.279779434E0,5.068860054E-1,1.918735504E-1
7.321170477E0,-4.242559433E0,5.414166451E-1,2.539448738E-1
7.326228758E0,-4.187695026E0,5.676331520E-1,2.037687302E-1
7.331287091E0,-4.143910408E0,6.238965988E-1,1.443519592E-1
7.336344695E0,-4.089783669E0,6.672887802E-1,1.211881638E-1
7.341403549E0,-4.068323612E0,7.553668022E-1,1.104226112E-1
7.346462456E0,-4.041370869E0,8.165311813E-1,5.948972702E-2
7.351519331E0,-3.977859974E0,8.558092117E-1,4.745817184E-2
7.356530424E0,-3.928165197E0,9.358415604E-1,6.017398834E-2
7.361636206E0,-3.850651503E0,9.916825294E-1,8.809995651E-2
7.366692768E0,-3.774950266E0,1.007687569E0,9.097146988E-2
7.371753602E0,-3.717230797E0,1.029252529E0,9.282779694E-2
7.376839956E0,-3.591067553E0,1.087904453E0,1.992650032E-1
7.381825581E0,-3.512040615E0,1.124783039E0,2.479863167E-1
7.386783862E0,-3.436468124E0,1.120696545E0,2.941589355E-1
7.391744279E0,-3.378279448E0,1.162156582E0,4.194612503E-1
7.396702768E0,-3.282357693E0,1.161062241E0,4.854254723E-1
7.401660841E0,-3.179558754E0,1.155900478E0,5.927348137E-1
7.406621102E0,-3.100757599E0,1.159029484E0,6.579790115E-1
7.411581154E0,-2.990719795E0,1.122988701E0,7.915015221E-1
7.416537872E0,-2.911464930E0,1.148633957E0,9.002685547E-1
7.421516622E0,-2.805007458E0,1.130711079E0,9.509615898E-1
7.426476570E0,-2.724271297E0,1.117534161E0,1.003629684E0
7.431415893E0,-2.604429245E0,1.133223057E0,1.113430023E0
7.436375216E0,-2.535905123E0,1.139580250E0,1.117811680E0
7.441358289E0,-2.470560789E0,1.174843788E0,1.112491131E0
7.446292820E0,-2.383049726E0,1.191495419E0,1.130897522E0
7.451274018E0,-2.305517197E0,1.251762867E0,1.091915607E0
7.456165997E0,-2.261625051E0,1.326884270E0,1.018957138E0
7.461192091E0,-2.228436232E0,1.356913090E0,9.460244179E-1
7.466152560E0,-2.109119892E0,1.418507099E0,8.699579239E-1
7.471088289E0,-2.068193674E0,1.485150814E0,7.523603439E-1
7.476070424E0,-2.013581753E0,1.566330910E0,5.741281509E-1
7.481027820E0,-1.987417698E0,1.599461079E0,4.040145874E-1
7.485969122E0,-1.922958970E0,1.732685089E0,2.489066124E-1
7.490922143E0,-1.882128239E0,1.824512005E0,6.305694580E-2
7.495885424E0,-1.829470634E0,1.917675972E0,-1.706609726E-1
7.500849487E0,-1.806185246E0,1.973474503E0,-3.809218407E-1
7.505872560E0,-1.789645195E0,2.075346470E0,-5.751605034E-1
7.510906570E0,-1.800707340E0,2.153033257E0,-9.239854813E-1
7.515964591E0,-1.732096314E0,2.201323032E0,-1.140648842E0
7.521023237E0,-1.711627960E0,2.276983261E0,-1.326240063E0
7.526081258E0,-1.672712922E0,2.293263435E0,-1.552955151E0
7.531138237E0,-1.627756357E0,2.321492672E0,-1.679954529E0
7.536194539E0,-1.565196276E0,2.325255871E0,-1.846344948E0
7.541255008E0,-1.499589205E0,2.304097176E0,-1.961477757E0
7.546312872E0,-1.433808088E0,2.293410778E0,-2.073494434E0
7.551372872E0,-1.353727102E0,2.247448921E0,-2.201642990E0
7.556429383E0,-1.285857677E0,2.237607956E0,-2.248047829E0
7.561486518E0,-1.180053949E0,2.175153732E0,-2.296585083E0
7.566547195E0,-1.127490520E0,2.165059090E0,-2.404775143E0
7.571603185E0,-1.004029751E0,2.116357803E0,-2.426649094E0
7.576685112E0,-9.383729696E-1,2.103064060E0,-2.450944901E0
7.581718966E0,-8.386675119E-1,2.087313175E0,-2.524956703E0
7.586780737E0,-7.324184179E-1,2.047161102E0,-2.572611809E0
7.591838081E0,-6.368566751E-1,2.026148796E0,-2.579204082E0
7.596893706E0,-5.424338579E-1,2.010177135E0,-2.642655849E0
7.601955060E0,-4.490984678E-1,1.987368584E0,-2.707908154E0
7.607029018E0,-3.255472183E-1,1.996441841E0,-2.707769394E0
7.612068029E0,-2.130765915E-1,1.992844582E0,-2.741954327E0
7.617129643E0,-1.010010242E-1,1.962119579E0,-2.715186596E0
7.622138497E0,2.669763565E-2,1.956010818E0,-2.681200981E0
7.627191414E0,1.498068571E-1,1.918848991E0,-2.669607639E0
7.632228081E0,2.751966715E-1,1.871197701E0,-2.571569920E0
7.637240945E0,4.055408239E-1,1.828099251E0,-2.503851414E0
7.642199695E0,5.170853138E-1,1.728446007E0,-2.388971329E0
7.647157924E0,6.754000187E-1,1.667719364E0,-2.263307571E0
7.652117352E0,8.044126034E-1,1.579489231E0,-2.104953289E0
7.657054591E0,9.139927626E-1,1.493251324E0,-1.956299305E0
7.662013497E0,1.079082489E0,1.389759541E0,-1.843945503E0
7.666995685E0,1.171058416E0,1.293414116E0,-1.719702721E0
7.671953237E0,1.299874663E0,1.171561241E0,-1.616123676E0
7.676913081E0,1.415790915E0,1.107813358E0,-1.502302647E0
7.681850997E0,1.506924391E0,1.011814117E0,-1.430195808E0
7.686830893E0,1.600558996E0,9.404172897E-1,-1.376739979E0
7.691789487E0,1.664981365E0,8.703956604E-1,-1.348025799E0
7.696678602E0,1.723566651E0,7.996754646E-1,-1.350523949E0
7.701637768E0,1.818831205E0,7.654538155E-1,-1.388489246E0
7.706663706E0,1.862165213E0,7.294678688E-1,-1.437912941E0
7.711626883E0,1.897253036E0,7.187299728E-1,-1.511505127E0
7.716585997E0,1.924681306E0,6.943607330E-1,-1.634054184E0
7.721545060E0,1.958649516E0,6.609635353E-1,-1.726745129E0
7.726503393E0,1.967752218E0,6.613688469E-1,-1.887763023E0
7.731440477E0,1.977701426E0,6.330413818E-1,-2.040589333E0
7.736399695E0,1.998355389E0,6.185946465E-1,-2.224220276E0
7.741360685E0,1.962077141E0,5.962500572E-1,-2.385972977E0
7.746315112E0,1.968697786E0,5.775732994E-1,-2.604914665E0
7.751276987E0,1.950882554E0,5.501093864E-1,-2.740335464E0
7.756232091E0,1.898511410E0,5.230650902E-1,-2.919182301E0
7.761193549E0,1.909333944E0,4.601535797E-1,-3.091516018E0
7.766154695E0,1.913290858E0,3.920426369E-1,-3.219263554E0
7.771112560E0,1.871716261E0,3.352022171E-1,-3.345576763E0
7.776070737E0,1.882210612E0,2.125954628E-1,-3.468380451E0
7.781031362E0,1.848684549E0,1.243567467E-1,-3.563980579E0
7.785990008E0,1.842522621E0,3.197336197E-2,-3.646716118E0
7.790949383E0,1.841848850E0,-5.766820908E-2,-3.714351177E0
7.795908341E0,1.839085102E0,-1.902165413E-1,-3.790781498E0
7.800869747E0,1.850846052E0,-3.084530830E-1,-3.835556030E0
7.805826362E0,1.864802837E0,-4.148344994E-1,-3.865223885E0
7.810785060E0,1.852064610E0,-5.525622368E-1,-3.877476215E0
7.815743706E0,1.857971907E0,-6.522622108E-1,-3.927256584E0
7.820702508E0,1.865631580E0,-7.832641602E-1,-3.952169895E0
7.825662195E0,1.882108688E0,-8.473796844E-1,-3.952005386E0
7.830622768E0,1.876328468E0,-9.450893402E-1,-4.017691612E0
7.835583393E0,1.888817072E0,-1.030822277E0,-4.060444355E0
7.840562247E0,1.905334234E0,-1.116503716E0,-4.025438309E0
7.845497924E0,1.930811882E0,-1.208434582E0,-4.042952538E0
7.850484018E0,1.922192574E0,-1.285837650E0,-4.049835682E0
7.855416362E0,1.939612865E0,-1.388043880E0,-4.048784733E0
7.860397820E0,1.951905251E0,-1.441659451E0,-3.983942032E0
7.865355893E0,1.969204187E0,-1.522163868E0,-3.983014584E0
7.870317560E0,1.996332645E0,-1.620048523E0,-3.976879358E0
7.875274904E0,2.031414032E0,-1.677389622E0,-3.893343687E0
7.880234070E0,2.038866997E0,-1.746615887E0,-3.835187912E0
7.885193081E0,2.069387436E0,-1.841725826E0,-3.766270876E0
7.890153185E0,2.080235720E0,-1.940952301E0,-3.696027517E0
7.895088497E0,2.127100229E0,-2.007795334E0,-3.580613375E0
7.900074279E0,2.147486210E0,-2.097879887E0,-3.514386892E0
7.905008133E0,2.176172733E0,-2.183601379E0,-3.430876255E0
7.909966727E0,2.193853855E0,-2.251148224E0,-3.340649605E0
7.914924643E0,2.239311695E0,-2.324059963E0,-3.226368427E0
7.919884018E0,2.238851786E0,-2.402164936E0,-3.128582239E0
7.924868706E0,2.254754066E0,-2.490344048E0,-3.028270483E0
7.929802039E0,2.290343046E0,-2.571137428E0,-2.948162556E0
7.934761154E0,2.297477484E0,-2.666591644E0,-2.848420858E0
7.939721154E0,2.281403065E0,-2.745396137E0,-2.754981041E0
7.944698081E0,2.275766850E0,-2.843476295E0,-2.710850716E0
7.949636779E0,2.283559799E0,-2.888748646E0,-2.602972746E0
7.954612768E0,2.268450260E0,-2.936735153E0,-2.537233114E0
7.959554018E0,2.271750450E0,-3.006194115E0,-2.505674362E0
7.964515529E0,2.233386278E0,-3.054385185E0,-2.470438242E0
7.969471935E0,2.225528240E0,-3.095549583E0,-2.407351971E0
7.974433654E0,2.176239967E0,-3.151371002E0,-2.419335365E0
7.979390477E0,2.143062592E0,-3.164456367E0,-2.434473038E0
7.984370737E0,2.097158909E0,-3.199549675E0,-2.457629681E0
7.989311518E0,2.048463821E0,-3.206291199E0,-2.455133200E0
7.994270424E0,1.999015570E0,-3.216031075E0,-2.475050688E0
7.999230268E0,1.924789071E0,-3.238422871E0,-2.553283691E0
8.004189383E0,1.859343767E0,-3.247181892E0,-2.589406490E0
8.009147872E0,1.821694374E0,-3.220855713E0,-2.626492739E0
8.014107299E0,1.732802033E0,-3.216989040E0,-2.734124422E0
8.019066414E0,1.640343904E0,-3.235671043E0,-2.804760218E0
8.024026466E0,1.608819008E0,-3.236249924E0,-2.819325209E0
8.028983862E0,1.520733595E0,-3.223679543E0,-2.921626568E0
8.033966154E0,1.435771227E0,-3.214798927E0,-3.001704454E0
8.038901831E0,1.349148512E0,-3.209686279E0,-3.052743196E0
8.043860997E0,1.265158653E0,-3.210837841E0,-3.069926500E0
8.048840477E0,1.178799748E0,-3.204022408E0,-3.192240238E0
8.053770893E0,1.092617273E0,-3.198914528E0,-3.264690161E0
8.058739070E0,1.041858435E0,-3.159726143E0,-3.301408529E0
8.063720945E0,9.425933361E-1,-3.179868698E0,-3.352929115E0
8.068657091E0,8.691335917E-1,-3.182891369E0,-3.429453611E0
8.073642560E0,8.064465523E-1,-3.180799484E0,-3.468333006E0
8.078646102E0,7.180755138E-1,-3.171418190E0,-3.491376877E0
8.083681258E0,6.467211246E-1,-3.162046909E0,-3.565699339E0
8.088740216E0,5.688495636E-1,-3.135939598E0,-3.596019745E0
8.093796727E0,5.202188492E-1,-3.121928215E0,-3.599472523E0
8.098879435E0,4.717674255E-1,-3.112868309E0,-3.631035566E0
8.103914227E0,3.880662918E-1,-3.120790482E0,-3.641144753E0
8.108968966E0,3.211102486E-1,-3.066822052E0,-3.631933689E0
8.114026935E0,2.733206749E-1,-3.068160534E0,-3.601038694E0
8.119088758E0,2.350633144E-1,-3.031535149E0,-3.608480453E0
8.124170633E0,1.631567478E-1,-2.988064766E0,-3.618311167E0
8.129205112E0,1.371808052E-1,-2.925779819E0,-3.595137119E0
8.134262143E0,9.897327423E-2,-2.937939644E0,-3.567245960E0
8.139321779E0,8.240008354E-2,-2.885685921E0,-3.570641994E0
8.144395164E0,5.874907970E-2,-2.845538139E0,-3.547803640E0
8.149437820E0,1.659834385E-2,-2.781575203E0,-3.487117290E0
8.154494018E0,1.084315777E-2,-2.703220844E0,-3.462323904E0
8.159551831E0,-3.970277309E-2,-2.634352684E0,-3.471029520E0
8.164613393E0,-2.963232994E-2,-2.593962669E0,-3.410226345E0
8.169671362E0,-6.366622448E-2,-2.531647205E0,-3.339750290E0
8.174725789E0,-3.402543068E-2,-2.454436779E0,-3.288002729E0
8.179784383E0,-4.571044445E-2,-2.390884399E0,-3.240419865E0
8.184845060E0,-6.017088890E-2,-2.360003471E0,-3.161046743E0
8.189900320E0,-3.623950481E-2,-2.289786339E0,-3.054399729E0
8.194961206E0,-5.498087406E-2,-2.254238605E0,-2.980034113E0
8.200020581E0,-2.029323578E-2,-2.176642895E0,-2.911412239E0
8.205037456E0,-1.494181156E-2,-2.159790039E0,-2.788910389E0
8.209991206E0,9.463787079E-3,-2.110245705E0,-2.703357697E0
8.214949383E0,2.379369736E-2,-2.049291611E0,-2.627629757E0
8.219909487E0,1.882731915E-2,-2.003123760E0,-2.516127586E0
8.224868289E0,4.525053501E-2,-1.957188129E0,-2.409270287E0
8.229824956E0,3.859686852E-2,-1.913743019E0,-2.299661160E0
8.234785320E0,5.673420429E-2,-1.858287334E0,-2.230173588E0
8.239742508E0,5.695188046E-2,-1.821853638E0,-2.152932644E0
8.244704070E0,5.372959375E-2,-1.737240791E0,-2.060414791E0
8.249685164E0,4.957360029E-2,-1.678421021E0,-2.031253338E0
8.254641935E0,3.068900108E-2,-1.614488602E0,-1.991893768E0
8.259604070E0,3.305268288E-2,-1.554747581E0,-1.951544285E0
8.264563497E0,3.048366308E-2,-1.475247383E0,-1.931851864E0
8.269515060E0,1.483201981E-3,-1.390367508E0,-1.976032257E0
8.274480945E0,-2.998310328E-2,-1.314264774E0,-1.976254940E0
8.279465008E0,-4.699122906E-2,-1.244460106E0,-1.978126049E0
8.284401883E0,-9.985309839E-2,-1.107473373E0,-2.042754173E0
8.289356674E0,-1.432817578E-1,-9.960703850E-1,-2.095150471E0
8.294320268E0,-1.772263050E-1,-8.888359070E-1,-2.202759266E0
8.299276102E0,-2.425823808E-1,-7.645769119E-1,-2.268199444E0
8.304235581E0,-2.559012175E-1,-6.615867615E-1,-2.382568359E0
8.309192872E0,-3.345519304E-1,-5.394330025E-1,-2.453090191E0
8.314155112E0,-3.784161210E-1,-4.293770790E-1,-2.568627357E0
8.319111831E0,-4.380334616E-1,-2.982869148E-1,-2.646042347E0
8.324071987E0,-4.802730680E-1,-2.205104828E-1,-2.738312244E0
8.329009018E0,-5.296432376E-1,-1.010794640E-1,-2.841613293E0
8.333968966E0,-5.648008585E-1,-1.618766785E-2,-2.895648003E0
8.338926674E0,-6.126778126E-1,9.326219559E-2,-2.968283653E0
8.343885164E0,-6.665360928E-1,1.814517975E-1,-2.990485668E0
8.348846570E0,-7.028186321E-1,2.480540276E-1,-3.034347534E0
8.353804122E0,-7.124270201E-1,3.404831886E-1,-3.049967289E0
8.358761102E0,-7.413289547E-1,4.034686089E-1,-3.058962822E0
8.363721883E0,-7.443447113E-1,5.012531281E-1,-3.075899124E0
8.368681674E0,-7.458578348E-1,5.855894089E-1,-3.050723553E0
8.373641049E0,-7.390830517E-1,6.610674858E-1,-3.040854454E0
8.378596674E0,-7.290383577E-1,7.273602486E-1,-3.020099163E0
8.383577143E0,-7.134839296E-1,8.182106018E-1,-2.978428841E0
8.388517664E0,-6.882209778E-1,9.038190842E-1,-2.926239967E0
8.393476466E0,-6.865801811E-1,1.013597488E0,-2.896139622E0
8.398433029E0,-6.442031860E-1,1.104120255E0,-2.852375031E0
8.403394904E0,-6.258583069E-1,1.197000980E0,-2.806660652E0
8.408354174E0,-6.051383018E-1,1.289829731E0,-2.730187416E0
8.413313133E0,-5.509738922E-1,1.380395889E0,-2.653779030E0
8.418274122E0,-4.991456270E-1,1.471217155E0,-2.570052624E0
8.423185060E0,-4.089746475E-1,1.564328194E0,-2.474463463E0
8.428188237E0,-3.492763042E-1,1.666181087E0,-2.360769272E0
8.433169799E0,-2.840620279E-1,1.737727642E0,-2.234434605E0
8.438106727E0,-2.106081247E-1,1.781469345E0,-2.088243961E0
8.443066987E0,-9.494638443E-2,1.862972736E0,-1.964481354E0
8.448025060E0,-5.155467987E-2,1.910649776E0,-1.796048164E0
8.453010372E0,1.825082302E-2,1.941758156E0,-1.632912159E0
8.457944435E0,1.004775763E-1,1.987128735E0,-1.470590591E0
8.462925685E0,1.837444305E-1,2.036100388E0,-1.300948620E0
8.467862977E0,2.660964727E-1,2.054687500E0,-1.126914501E0
8.472822872E0,3.577436209E-1,2.063036919E0,-9.263429642E-1
8.477780997E0,4.495117664E-1,2.087452888E0,-7.807025909E-1
8.482763706E0,5.276747942E-1,2.049758911E0,-6.369223595E-1
8.487699174E0,5.924181938E-1,2.090429306E0,-4.693341255E-1
8.492658966E0,6.588406563E-1,2.114768505E0,-3.060936928E-1
8.497641310E0,7.225141525E-1,2.125352383E0,-1.950850487E-1
8.502649122E0,7.849367261E-1,2.142200947E0,-9.301996231E-2
8.507711102E0,8.347923756E-1,2.134770870E0,4.961013794E-3
8.512739956E0,8.942783475E-1,2.172951698E0,5.944299698E-2
8.517798237E0,9.688237906E-1,2.228784084E0,6.354999542E-2
8.522881362E0,9.795885086E-1,2.261532307E0,1.103334427E-1
8.527916622E0,1.014100671E0,2.360744476E0,1.080217361E-1
8.532972768E0,1.056420207E0,2.412534714E0,5.216932297E-2
8.538032143E0,1.070251465E0,2.461873055E0,1.892185211E-2
8.543087091E0,1.110230684E0,2.539323330E0,-3.759479523E-2
8.548145164E0,1.145018578E0,2.577772617E0,-9.601688385E-2
8.553159174E0,1.173385501E0,2.623733521E0,-1.665306091E-1
8.558264331E0,1.197357178E0,2.693695545E0,-2.604990005E-1
8.563322612E0,1.194940090E0,2.784607410E0,-2.952880859E-1
8.568380737E0,1.247637510E0,2.846626282E0,-3.856124878E-1
8.573440841E0,1.266463518E0,2.881690025E0,-4.694156647E-1
8.578498706E0,1.298735023E0,2.927556038E0,-5.157537460E-1
8.583555737E0,1.329587460E0,2.981439114E0,-5.486078262E-1
8.588615164E0,1.384881973E0,2.963782787E0,-5.992250443E-1
8.593672924E0,1.432958364E0,3.012864113E0,-6.197528839E-1
8.598732299E0,1.485412002E0,2.999233723E0,-6.077270508E-1
8.603789591E0,1.527334452E0,3.020522118E0,-6.348400116E-1
8.608846570E0,1.589483976E0,3.014064550E0,-6.197013855E-1
8.613905112E0,1.633257031E0,3.032240152E0,-5.789470673E-1
8.618962924E0,1.696560144E0,3.022216797E0,-5.602169037E-1
8.624022716E0,1.750429511E0,3.024426937E0,-5.346384048E-1
8.629046154E0,1.808188677E0,3.021465778E0,-5.090570450E-1
8.634013393E0,1.902885675E0,3.015546322E0,-4.257793427E-1
8.638974331E0,1.939500332E0,3.040709972E0,-4.114828110E-1
8.643912977E0,2.022979736E0,3.029658794E0,-3.487348557E-1
8.648890008E0,2.099005699E0,2.982998371E0,-3.092985153E-1
8.653852508E0,2.147680759E0,2.979449749E0,-2.353467941E-1
8.658811622E0,2.231162548E0,2.959303141E0,-2.223596573E-1
8.663771258E0,2.311233521E0,2.982530594E0,-1.768560410E-1
8.668706102E0,2.361265182E0,2.962985039E0,-7.229709625E-2
8.673689122E0,2.456315041E0,2.973094940E0,1.940059662E-2
8.678625268E0,2.528289557E0,2.938592672E0,3.193473816E-2
8.683603185E0,2.611821413E0,2.934043884E0,1.228322983E-1
8.688566154E0,2.703936815E0,2.892740726E0,2.351160049E-1
8.693525268E0,2.771436691E0,2.865232229E0,3.233494759E-1
8.698481622E0,2.857563972E0,2.858997583E0,3.852629662E-1
8.703441987E0,2.931462288E0,2.800290585E0,4.711747169E-1
8.708402404E0,3.012479305E0,2.778029680E0,5.978765488E-1
8.713358602E0,3.091084719E0,2.735061169E0,6.961064339E-1
8.718298289E0,3.174683571E0,2.707629442E0,7.635555267E-1
8.723279904E0,3.225668907E0,2.638643265E0,8.861031532E-1
8.728289070E0,3.313291073E0,2.616848230E0,9.706287384E-1
8.733322768E0,3.375573635E0,2.556415558E0,1.084142685E0
8.738383341E0,3.451303959E0,2.539153814E0,1.145223618E0
8.743442820E0,3.507026434E0,2.467352629E0,1.259315968E0
8.748500112E0,3.566889048E0,2.422505379E0,1.287602901E0
8.753558029E0,3.619143009E0,2.388002634E0,1.323399544E0
8.758616414E0,3.685462713E0,2.349661350E0,1.390605927E0
8.763657612E0,3.734950304E0,2.329248190E0,1.441350937E0
8.768733029E0,3.767937660E0,2.285992622E0,1.461057186E0
8.773790945E0,3.798569441E0,2.258394957E0,1.469150543E0
8.778861570E0,3.841497898E0,2.241628885E0,1.470215321E0
8.783908237E0,3.867920399E0,2.197544098E0,1.495469093E0
8.788965633E0,3.937795401E0,2.195353746E0,1.463393688E0
8.794024279E0,3.957804680E0,2.141604185E0,1.421814442E0
8.799083289E0,3.968610048E0,2.144044399E0,1.416247845E0
8.804140841E0,3.960591078E0,2.159358740E0,1.353338242E0
8.809198602E0,3.974341393E0,2.132405758E0,1.278577328E0
8.814257560E0,4.007438660E0,2.130053759E0,1.215822220E0
8.819315997E0,3.987933874E0,2.140134335E0,1.165103912E0
8.824373758E0,3.997132301E0,2.133646727E0,1.066522598E0
8.829429070E0,3.984514713E0,2.134245157E0,9.465026855E-1
8.834489279E0,3.973987579E0,2.165708303E0,8.887200356E-1
8.839572768E0,3.975026369E0,2.120090246E0,8.093237877E-1
8.844615060E0,3.958304644E0,2.119079828E0,6.464672089E-1
8.849664227E0,3.928763390E0,2.114640951E0,5.841956139E-1
8.854672456E0,3.926641703E0,2.116075754E0,5.365080833E-1
8.859652872E0,3.891977072E0,2.099119663E0,4.220390320E-1
8.864588029E0,3.874725342E0,2.087408304E0,3.198723793E-1
8.869549383E0,3.863170147E0,2.071235418E0,2.488565445E-1
8.874529122E0,3.840322018E0,2.040731192E0,2.042069435E-1
8.879466570E0,3.815315247E0,2.010134220E0,1.001057625E-1
8.884446518E0,3.790735722E0,1.979017735E0,4.145479202E-2
8.889409070E0,3.773296833E0,1.954594135E0,4.676342010E-3
8.894366987E0,3.748610973E0,1.939084053E0,-7.249784470E-2
8.899327195E0,3.740323067E0,1.944142818E0,-1.397528648E-1
8.904219070E0,3.717104197E0,1.915056944E0,-1.943745613E-1
8.909245997E0,3.659977198E0,1.862579823E0,-2.443990707E-1
8.914305893E0,3.614819527E0,1.876235962E0,-3.320608139E-1
8.919363758E0,3.594859123E0,1.845551491E0,-3.975448608E-1
8.924421518E0,3.556841373E0,1.837578297E0,-4.359889030E-1
8.929453914E0,3.515090466E0,1.840669632E0,-5.118288994E-1
8.934511883E0,3.469360828E0,1.811298370E0,-5.749745369E-1
8.939572508E0,3.421893120E0,1.785758495E0,-5.964918137E-1
8.944631049E0,3.396654606E0,1.773778439E0,-6.195292473E-1
8.949686674E0,3.367209196E0,1.773135185E0,-6.990008354E-1
8.954744643E0,3.326220274E0,1.755214691E0,-7.295622826E-1
8.959807143E0,3.264139175E0,1.737091064E0,-7.016506195E-1
8.964864695E0,3.236034632E0,1.707169056E0,-7.348375320E-1
8.969922612E0,3.220423937E0,1.684765339E0,-7.478451729E-1
8.974980789E0,3.162299633E0,1.667878628E0,-7.740516663E-1
8.979993706E0,3.124503374E0,1.659974575E0,-7.200593948E-1
8.985030945E0,3.113558769E0,1.617286682E0,-7.032666206E-1
8.990090112E0,3.057870388E0,1.595165730E0,-7.380342484E-1
8.995145008E0,3.020265341E0,1.570530891E0,-6.808009148E-1
9.000205893E0,3.000792742E0,1.565170765E0,-6.105494499E-1
9.005263445E0,2.971072435E0,1.536430359E0,-6.014580727E-1
9.010273862E0,2.946344852E0,1.492426395E0,-5.745568275E-1
9.015380685E0,2.929719925E0,1.465189457E0,-5.179014206E-1
9.020438549E0,2.885307789E0,1.445021629E0,-4.865117073E-1
9.025444956E0,2.892524242E0,1.403518677E0,-4.373836517E-1
9.030478237E0,2.840407372E0,1.371001720E0,-3.514032364E-1
9.035537091E0,2.786822319E0,1.352574348E0,-3.051452637E-1
9.040595633E0,2.737265587E0,1.320057392E0,-2.746624947E-1
9.045601154E0,2.711997986E0,1.290978909E0,-2.934408188E-1
9.050558081E0,2.646695375E0,1.258171558E0,-2.227897644E-1
9.055542352E0,2.600079775E0,1.268781185E0,-2.108731270E-1
9.060594904E0,2.538721323E0,1.232662201E0,-2.282495499E-1
9.065627247E0,2.466385603E0,1.235857010E0,-2.374496460E-1
9.070710841E0,2.417915344E0,1.239377975E0,-2.575182915E-1
9.075746622E0,2.332840919E0,1.239212990E0,-2.958540916E-1
9.080825216E0,2.229009151E0,1.246438503E0,-3.595523834E-1
9.085884643E0,2.172046185E0,1.263884544E0,-4.630312920E-1
9.090941258E0,2.085145235E0,1.267370224E0,-5.201802254E-1
9.095978341E0,1.990075707E0,1.323653698E0,-6.412701607E-1
9.101056102E0,1.888272166E0,1.346092701E0,-7.615604401E-1
9.106094747E0,1.778543472E0,1.389946461E0,-8.670415878E-1
9.111152820E0,1.707611680E0,1.421146393E0,-9.959101677E-1
9.116235529E0,1.591602564E0,1.429775238E0,-1.129251480E0
9.121269279E0,1.455430508E0,1.466151714E0,-1.281732082E0
9.126324799E0,1.359972239E0,1.488962173E0,-1.386329651E0
9.131405841E0,1.242838621E0,1.531422615E0,-1.541316509E0
9.136444799E0,1.126392722E0,1.521642685E0,-1.663390636E0
9.141502404E0,9.879010916E-1,1.530891895E0,-1.783657551E0
9.146512924E0,9.072109461E-1,1.511238575E0,-1.888216496E0
9.151618758E0,7.790533304E-1,1.509787560E0,-1.988837242E0
9.156676883E0,6.699604988E-1,1.500362873E0,-2.102880955E0
9.161736414E0,5.526548624E-1,1.482616901E0,-2.146649361E0
9.166793341E0,4.581754208E-1,1.463538647E0,-2.230419159E0
9.171851883E0,3.598673344E-1,1.430983067E0,-2.308833122E0
9.176909904E0,2.290605307E-1,1.411062717E0,-2.360638142E0
9.181967612E0,1.205818653E-1,1.387004852E0,-2.407409191E0
9.186934070E0,3.348898888E-2,1.364067078E0,-2.446828365E0
9.191891049E0,-3.602755070E-2,1.353716373E0,-2.507695198E0
9.196850320E0,-1.337987185E-1,1.303264141E0,-2.508738995E0
9.201807716E0,-2.429506779E-1,1.272674561E0,-2.524163723E0
9.206768602E0,-3.324714899E-1,1.259531021E0,-2.530124664E0
9.211727195E0,-4.310394526E-1,1.218650818E0,-2.531280518E0
9.216688654E0,-5.171433687E-1,1.219508648E0,-2.537218094E0
9.221664799E0,-5.956740379E-1,1.178546429E0,-2.480902195E0
9.226627716E0,-6.636489630E-1,1.144060612E0,-2.438743114E0
9.231588237E0,-7.211594582E-1,1.118574619E0,-2.408273697E0
9.236546049E0,-8.158733845E-1,1.071364880E0,-2.336623192E0
9.241483341E0,-8.634107709E-1,1.069833755E0,-2.276190281E0
9.246466258E0,-9.343575835E-1,1.022813320E0,-2.193641186E0
9.251422977E0,-9.790685177E-1,9.552102089E-1,-2.076382160E0
9.256382195E0,-1.048203945E0,8.957986832E-1,-2.000875473E0
9.261340164E0,-1.100536585E0,8.736300468E-1,-1.899796486E0
9.266300112E0,-1.186301589E0,8.290781975E-1,-1.818380356E0
9.271256935E0,-1.240447044E0,7.935805321E-1,-1.715607166E0
9.276218602E0,-1.286776304E0,7.171907425E-1,-1.605506420E0
9.281152404E0,-1.353068113E0,6.792039871E-1,-1.490056038E0
9.286113966E0,-1.399552226E0,6.267819405E-1,-1.400438786E0
9.291095112E0,-1.461643934E0,5.746273994E-1,-1.271616936E0
9.296053602E0,-1.507149220E0,5.350003242E-1,-1.189251423E0
9.301014852E0,-1.586693406E0,4.911537170E-1,-1.119670868E0
9.305961935E0,-1.649511695E0,4.574680328E-1,-1.057888985E0
9.310932143E0,-1.686653972E0,4.076819420E-1,-1.003736973E0
9.315891674E0,-1.800189734E0,3.657155037E-1,-9.546465874E-1
9.320851831E0,-1.849102497E0,3.410511017E-1,-9.201354980E-1
9.325808602E0,-1.914717436E0,3.336701393E-1,-9.024443626E-1
9.330746414E0,-1.992003083E0,3.004503250E-1,-9.014763832E-1
9.335705789E0,-2.088743687E0,2.987036705E-1,-9.268684387E-1
9.340664591E0,-2.147254944E0,2.613101006E-1,-9.331789017E-1
9.345576310E0,-2.243410110E0,2.454686165E-1,-9.922342300E-1
9.350583029E0,-2.334046602E0,2.631349564E-1,-1.030113220E0
9.355541727E0,-2.414680004E0,2.516922951E-1,-1.094727993E0
9.360500581E0,-2.486167431E0,2.325048447E-1,-1.174388885E0
9.365460685E0,-2.563064575E0,2.388949394E-1,-1.228607655E0
9.370418810E0,-2.650264502E0,2.538228035E-1,-1.300747395E0
9.375377924E0,-2.721510172E0,2.316193581E-1,-1.355154037E0
9.380336779E0,-2.839354515E0,2.008032799E-1,-1.444756031E0
9.385296466E0,-2.912800312E0,1.777801514E-1,-1.486163616E0
9.390255372E0,-2.987485409E0,1.479539871E-1,-1.541883945E0
9.395214331E0,-3.061210155E0,1.182789803E-1,-1.578703880E0
9.400173602E0,-3.157974720E0,9.801197052E-2,-1.632855892E0
9.405130164E0,-3.220342159E0,6.302833557E-2,-1.656691551E0
9.410092456E0,-3.260626793E0,1.194477081E-3,-1.672049522E0
9.415049383E0,-3.347917080E0,-1.837253571E-2,-1.688690186E0
9.420010112E0,-3.427331448E0,-1.059045792E-1,-1.709236145E0
9.424969331E0,-3.448772430E0,-1.490983963E-1,-1.705178738E0
9.429901674E0,-3.521939754E0,-1.792349815E-1,-1.667004585E0
9.434887143E0,-3.552073240E0,-2.154064178E-1,-1.654760838E0
9.439845841E0,-3.631520271E0,-2.746772766E-1,-1.656504631E0
9.444805737E0,-3.667302847E0,-3.425259590E-1,-1.602805614E0
9.449786674E0,-3.729039669E0,-3.759884834E-1,-1.577588081E0
9.454723758E0,-3.741717577E0,-4.110941887E-1,-1.539980888E0
9.459705841E0,-3.797244072E0,-4.429035187E-1,-1.490180969E0
9.464663133E0,-3.839694262E0,-4.881658554E-1,-1.418313980E0
9.469623654E0,-3.852578402E0,-5.300674438E-1,-1.384200096E0
9.474582768E0,-3.893294334E0,-5.541653633E-1,-1.330278397E0
9.479519591E0,-3.925546646E0,-5.986223221E-1,-1.258667469E0
9.484501102E0,-3.945266485E0,-6.441512108E-1,-1.171913624E0
9.489460008E0,-3.992388248E0,-6.643075943E-1,-1.110216618E0
9.494420320E0,-3.988137007E0,-7.043919563E-1,-1.044729710E0
9.499377977E0,-4.013682365E0,-7.594118118E-1,-9.416704178E-1
9.504334799E0,-4.018755436E0,-7.766165733E-1,-8.463454247E-1
9.509295685E0,-4.022299290E0,-7.654280663E-1,-7.727551460E-1
9.514254904E0,-4.050684929E0,-8.380990028E-1,-6.848196983E-1
9.519212768E0,-4.065447807E0,-8.794879913E-1,-5.821342468E-1
9.524172299E0,-4.071368694E0,-9.206447601E-1,-4.669780731E-1
9.529133341E0,-4.068343163E0,-9.446215630E-1,-4.059720039E-1
9.534082924E0,-4.065731049E0,-9.585180283E-1,-2.911877632E-1
9.539029539E0,-4.085109711E0,-9.788575172E-1,-1.726155281E-1
9.543987456E0,-4.085822582E0,-1.024634361E0,-1.002864838E-1
9.548945997E0,-4.098742962E0,-1.055114746E0,-2.847814560E-2
9.553905529E0,-4.104818344E0,-1.105957508E0,1.004686356E-1
9.558864591E0,-4.077562332E0,-1.112524986E0,1.575732231E-1
9.563825060E0,-4.107918739E0,-1.141748428E0,2.291150093E-1
9.568781518E0,-4.111999989E0,-1.148089409E0,3.152794838E-1
9.573740581E0,-4.087472916E0,-1.179337502E0,3.778824806E-1
9.578700112E0,-4.098967075E0,-1.204303741E0,4.529123306E-1
9.583677091E0,-4.093797207E0,-1.199053764E0,4.663057327E-1
9.588619747E0,-4.102942944E0,-1.225837708E0,5.329351425E-1
9.593578549E0,-4.131295204E0,-1.210390091E0,5.714902878E-1
9.598539539E0,-4.123902321E0,-1.212615967E0,5.842618942E-1
9.603497299E0,-4.138247013E0,-1.203798771E0,5.688481331E-1
9.608455945E0,-4.131137848E0,-1.191213608E0,5.945653915E-1
9.613417404E0,-4.141067505E0,-1.184308529E0,5.681090355E-1
9.618374383E0,-4.141759872E0,-1.149846077E0,5.274491310E-1
9.623286831E0,-4.164460659E0,-1.140525818E0,5.106706619E-1
9.628292352E0,-4.165936470E0,-1.113015652E0,4.893960953E-1
9.633252299E0,-4.156075478E0,-1.096540928E0,4.317512512E-1
9.638233497E0,-4.201869011E0,-1.062276840E0,3.569874763E-1
9.643192924E0,-4.203012466E0,-1.022414684E0,2.982115746E-1
9.648152508E0,-4.200167179E0,-9.914383888E-1,2.671923637E-1
9.653088445E0,-4.210294724E0,-9.623465538E-1,1.941967010E-1
9.658047195E0,-4.233430862E0,-9.087710381E-1,1.079816818E-1
9.663028497E0,-4.231286526E0,-8.931851387E-1,7.279586792E-2
9.667988862E0,-4.225732327E0,-8.535637856E-1,3.797006607E-2
9.672946935E0,-4.223867416E0,-8.307642937E-1,-3.731441498E-2
9.677883341E0,-4.249814987E0,-7.963557243E-1,-9.603691101E-2
9.682865216E0,-4.224367619E0,-7.644720078E-1,-1.259031296E-1
9.687799747E0,-4.231714725E0,-7.309384346E-1,-1.827940941E-1
9.692760268E0,-4.240583420E0,-7.219281197E-1,-2.497253418E-1
9.697742977E0,-4.193493843E0,-6.802258492E-1,-2.957606316E-1
9.702680424E0,-4.162638664E0,-6.493301392E-1,-3.143439293E-1
9.707639018E0,-4.169207573E0,-6.291251183E-1,-3.506789207E-1
9.712620268E0,-4.170197964E0,-6.054344177E-1,-4.336419106E-1
9.717585008E0,-4.144350052E0,-5.544376373E-1,-4.342331886E-1
9.722499852E0,-4.122841835E0,-5.434765816E-1,-4.389910698E-1
9.727460060E0,-4.095660686E0,-4.957504272E-1,-5.072464943E-1
9.732456102E0,-4.103520870E0,-4.592394829E-1,-5.266618729E-1
9.737391049E0,-4.056115150E0,-4.317293167E-1,-5.383567810E-1
9.742352143E0,-4.017465591E0,-4.059691429E-1,-5.563640594E-1
9.747312508E0,-3.994924068E0,-3.701052666E-1,-6.119251251E-1
9.752268914E0,-3.955057144E0,-2.858419418E-1,-6.212682724E-1
9.757230008E0,-3.892934322E0,-2.560520172E-1,-5.939412117E-1
9.762189435E0,-3.865953207E0,-2.279386520E-1,-6.135511398E-1
9.767147247E0,-3.838286400E0,-1.680374146E-1,-6.370439529E-1
9.772106674E0,-3.769206524E0,-1.192851067E-1,-6.403422356E-1
9.777064487E0,-3.713786840E0,-7.910490036E-2,-6.209330559E-1
9.782043966E0,-3.693192482E0,-1.157855988E-2,-6.265206337E-1
9.786981206E0,-3.605039120E0,4.758262634E-2,-6.212034225E-1
9.791940372E0,-3.551749229E0,8.185911179E-2,-6.237792969E-1
9.796899383E0,-3.506900072E0,1.487531662E-1,-6.006746292E-1
9.801861727E0,-3.441740274E0,1.695208549E-1,-6.115150452E-1
9.806820112E0,-3.363466740E0,2.138032913E-1,-5.604052544E-1
9.811778237E0,-3.293465376E0,2.674803734E-1,-4.973711967E-1
9.816738393E0,-3.245927334E0,3.043899536E-1,-4.987812042E-1
9.821717299E0,-3.131973267E0,3.246769905E-1,-4.519762993E-1
9.826656622E0,-3.081315279E0,3.765654564E-1,-3.879208565E-1
9.831638497E0,-3.004393101E0,4.051356316E-1,-3.254084587E-1
9.836596258E0,-2.911420345E0,4.250078201E-1,-3.002877235E-1
9.841556362E0,-2.844980240E0,4.889659882E-1,-2.333645821E-1
9.846515581E0,-2.759607553E0,4.991030693E-1,-2.130446434E-1
9.851451518E0,-2.688784361E0,5.153179169E-1,-1.818866730E-1
9.856426206E0,-2.619765282E0,5.521535873E-1,-1.754684448E-1
9.861369279E0,-2.522237539E0,5.881280899E-1,-1.317849159E-1
9.866354643E0,-2.454985619E0,6.305880547E-1,-1.270976067E-1
9.871308758E0,-2.382978916E0,6.627492905E-1,-1.425457001E-1
9.876247924E0,-2.318058729E0,6.799559593E-1,-1.565423012E-1
9.881207299E0,-2.245297432E0,7.372927666E-1,-1.809749603E-1
9.886188289E0,-2.193372726E0,7.868824005E-1,-2.159533501E-1
9.891147924E0,-2.148587227E0,8.285536766E-1,-2.666392326E-1
9.896106154E0,-2.060552359E0,8.552637100E-1,-3.449401855E-1
9.901043549E0,-1.987099171E0,9.384508133E-1,-4.082303047E-1
9.906024956E0,-1.958352566E0,9.777669907E-1,-4.946417809E-1
9.910984435E0,-1.896602869E0,1.042215824E0,-5.904164314E-1
9.915943289E0,-1.842364311E0,1.100635529E0,-6.908707619E-1
9.920902456E0,-1.790956259E0,1.155125618E0,-7.748465538E-1
9.925839904E0,-1.738372326E0,1.200674057E0,-9.048671722E-1
9.930797195E0,-1.695973873E0,1.261019230E0,-1.040409088E0
9.935757143E0,-1.618840456E0,1.295194626E0,-1.150729656E0
9.940716102E0,-1.579113126E0,1.355556011E0,-1.243324280E0
9.945675424E0,-1.531522393E0,1.408356667E0,-1.356706619E0
9.950634904E0,-1.464478612E0,1.453191757E0,-1.484042168E0
9.955590997E0,-1.397373676E0,1.477859974E0,-1.565739632E0
9.960553185E0,-1.323139191E0,1.501213551E0,-1.678608418E0
9.965512195E0,-1.259105921E0,1.534960747E0,-1.772556305E0
9.970470945E0,-1.193324804E0,1.545325279E0,-1.864538670E0
9.975430216E0,-1.121252537E0,1.575026035E0,-1.923709393E0
9.980342456E0,-1.060822248E0,1.595163345E0,-1.995528698E0
9.985348289E0,-9.759846330E-1,1.617635250E0,-2.046756268E0
9.990307820E0,-8.911338449E-1,1.596757412E0,-2.105988503E0
9.995266466E0,-8.223479986E-1,1.606590271E0,-2.163753986E0
1.000022594E1,-7.290127277E-1,1.596756458E0,-2.191407204E0
1.000518584E1,-6.448081732E-1,1.631859779E0,-2.217588425E0
1.001009673E1,-5.730332136E-1,1.637703419E0,-2.246892929E0
1.001510194E1,-4.562624693E-1,1.633268833E0,-2.279855251E0
1.002006256E1,-3.830698729E-1,1.626113415E0,-2.287008762E0
1.002502230E1,-2.497997284E-1,1.628233910E0,-2.294764042E0
1.003000360E1,-1.661906242E-1,1.613314152E0,-2.307963371E0
1.003496324E1,-5.854320526E-2,1.617652416E0,-2.306996822E0
1.003989839E1,6.108200550E-2,1.586553097E0,-2.274822712E0
1.004487912E1,1.604549885E-1,1.570071220E0,-2.257397652E0
1.004983844E1,2.697812319E-1,1.583200932E0,-2.215634346E0
1.005476928E1,3.628187180E-1,1.544932365E0,-2.180363178E0
1.005975798E1,4.770128727E-1,1.536428928E0,-2.140245914E0
1.006469303E1,6.012806892E-1,1.494041443E0,-2.072484493E0
1.006967923E1,6.823869944E-1,1.431951523E0,-2.008923054E0
1.007463522E1,8.126827478E-1,1.422620296E0,-1.917532444E0
1.007964475E1,9.291300774E-1,1.348750591E0,-1.841978073E0
1.008467683E1,1.055435896E0,1.297086239E0,-1.709905148E0
1.008976183E1,1.178037763E0,1.226988792E0,-1.646000862E0
